participantID,wordSetID,rt,word,button_pressed,response_r,response_g,response_b,response_munsell,trial_index,time_elapsed,condition
652,0,4057.71500011906,sadness,18,173,204,247,5PB8/6,16,47962,block1_target_trial
652,0,2500.535000115633,pheasant,13,252,190,0,5Y8/14,17,50966,block1_target_trial
652,0,1781.775000039488,barley,26,64,196,164,10G7/8,18,53249,block1_target_trial
652,0,2177.309999940917,appearance,0,245,225,219,10R9/2,19,55932,block1_target_trial
652,0,1508.21499992162,sun,13,252,190,0,5Y8/14,20,57943,block1_target_trial
652,0,1984.5050000585616,rose,33,239,107,106,5R6/12,21,60431,block1_target_trial
652,0,1752.7950000949204,bone,0,245,225,219,10R9/2,22,62689,block1_target_trial
652,0,1708.4250000771135,fish,28,99,185,228,10B7/8,23,64900,block1_target_trial
652,0,1497.1900000236928,rock,43,163,162,162,N6,24,66900,block1_target_trial
652,0,1700.5600000265986,playfulness,42,226,110,159,5RP6/12,25,69103,block1_target_trial
652,0,1768.709999974817,excitement,23,244,150,0,10YR7/14,26,71375,block1_target_trial
652,0,1503.5749999806285,shampoo,50,0,146,196,10B5/12,27,73381,block1_target_trial
652,0,1406.6249998286366,chalk,0,245,225,219,10R9/2,28,75291,block1_target_trial
652,0,4527.694999938831,divinity,63,132,71,157,5P4/12,29,80321,block1_target_trial
652,0,2400.27999994345,loyal,51,124,112,186,10PB5/10,30,83225,block1_target_trial
652,0,2255.875000031665,optimism,13,252,190,0,5Y8/14,31,85983,block1_target_trial
652,0,1632.6500000432134,urge,49,0,147,152,10BG5/10,32,88119,block1_target_trial
652,0,1462.6249999273568,lemon,2,238,234,140,10Y9/6,33,90085,block1_target_trial
652,0,2033.2649999763817,robin,44,216,65,0,10R5/16,34,92621,block1_target_trial
652,0,2501.864999998361,pain,80,46,52,38,5GY2/2,35,95626,block1_target_trial
652,0,1970.54999996908,ache,66,137,34,17,10R3/10,36,98099,block1_target_trial
652,0,1399.3249998893589,desire,44,216,65,0,10R5/16,37,100001,block1_target_trial
652,0,1847.1450000070035,faith,13,252,190,0,5Y8/14,38,102351,block1_target_trial
652,0,1811.099999817088,success,63,132,71,157,5P4/12,39,104665,block1_target_trial
652,0,1208.549999864772,romance,44,216,65,0,10R5/16,40,106377,block1_target_trial
652,0,2614.555000094697,corpse,87,59,58,58,N2,41,109494,block1_target_trial
652,0,1663.5900000110269,temptation,44,216,65,0,10R5/16,42,111661,block1_target_trial
652,0,1519.510000012815,staple,48,0,149,112,10G5/10,43,113684,block1_target_trial
652,0,1284.5299998298287,energy,24,203,172,0,10Y7/12,44,115471,block1_target_trial
652,0,1776.5049999579787,relief,23,244,150,0,10YR7/14,45,117750,block1_target_trial
652,0,1575.0599999446422,fork,87,59,58,58,N2,46,119829,block1_target_trial
652,0,2058.930000057444,heroism,63,132,71,157,5P4/12,47,122390,block1_target_trial
652,0,1439.8300000466406,gloom,18,173,204,247,5PB8/6,48,124333,block1_target_trial
652,0,2032.6249999925496,boat,50,0,146,196,10B5/12,49,126869,block1_target_trial
652,0,3590.0250000413507,mansion,57,116,95,21,5Y4/6,50,130962,block1_target_trial
652,0,2078.734999988228,toe,11,254,185,179,5R8/6,51,133544,block1_target_trial
652,0,1758.5549999494106,computer,76,82,82,81,N3,52,135806,block1_target_trial
652,0,1522.5299999583513,heaven,50,0,146,196,10B5/12,54,139587,block1_target_trial
652,0,1499.0049998741597,tarantula,87,59,58,58,N2,55,141589,block1_target_trial
652,0,2273.5199998132885,belt,83,0,63,80,5B2/6,56,144365,block1_target_trial
300,0,21589.12000001874,faith,47,54,142,15,10GY5/12,16,129632,block1_target_trial
652,0,5412.385000148788,temptation,44,216,65,0,10R5/16,58,155247,block2_target_trial
300,0,3044.454999966547,success,47,54,142,15,10GY5/12,17,133182,block1_target_trial
652,0,1132.175000151619,romance,44,216,65,0,10R5/16,60,160904,block2_target_trial
300,0,6640.285000030417,sadness,80,46,52,38,5GY2/2,18,140329,block1_target_trial
652,0,2276.044999947771,robin,44,216,65,0,10R5/16,63,167866,block2_target_trial
300,0,4246.539999963716,toe,3,200,241,191,10GY9/4,19,145082,block1_target_trial
652,0,1432.859999826178,corpse,87,59,58,58,N2,65,170999,block2_target_trial
652,0,3105.784999905154,sadness,6,216,232,240,10B9/2,67,175780,block2_target_trial
300,0,6713.464999978896,corpse,25,103,196,96,10GY7/10,20,152301,block1_target_trial
300,0,4061.4150000037625,sun,34,231,111,0,5YR6/14,21,156870,block1_target_trial
652,0,1502.9649999924004,playfulness,13,252,190,0,5Y8/14,69,181540,block2_target_trial
300,0,4935.354999965057,pheasant,25,103,196,96,10GY7/10,22,162311,block1_target_trial
652,0,1889.6600001025945,barley,25,103,196,96,10GY7/10,71,186657,block2_target_trial
652,0,1511.49500021711,shampoo,61,0,121,148,5B4/10,73,190165,block2_target_trial
519,0,3269.185000041034,playfulness,23,244,150,0,10YR7/14,16,176582,block1_target_trial
300,0,5304.194999975152,rose,33,239,107,106,5R6/12,23,168120,block1_target_trial
519,0,1559.6999999834225,relief,17,158,211,223,5B8/4,17,178646,block1_target_trial
652,0,1260.054999962449,appearance,0,245,225,219,10R9/2,75,193343,block2_target_trial
519,0,2911.614999989979,gloom,78,75,41,23,5YR2/4,18,182070,block1_target_trial
652,0,1643.9100001007318,pain,77,99,14,38,5R2/8,77,196691,block2_target_trial
300,0,6034.594999975525,energy,23,244,150,0,10YR7/14,24,174659,block1_target_trial
652,0,2032.230000011623,lemon,2,238,234,140,10Y9/6,79,200870,block2_target_trial
519,0,5023.189999978058,loyal,55,190,26,52,5R4/14,19,187598,block1_target_trial
300,0,3749.654999992345,belt,2,238,234,140,10Y9/6,25,178920,block1_target_trial
652,0,1107.7149999327958,chalk,0,245,225,219,10R9/2,81,203971,block2_target_trial
314,0,4552.589999977499,desire,51,124,112,186,10PB5/10,16,212889,block1_target_trial
519,0,2119.0349999815226,computer,21,202,202,202,N8,21,192590,block1_target_trial
314,0,1663.6500000022352,heroism,45,170,103,0,10YR5/10,17,215059,block1_target_trial
652,0,1830.294999992475,optimism,13,252,190,0,5Y8/14,83,207475,block2_target_trial
314,0,1326.844999974128,ache,55,190,26,52,5R4/14,18,216893,block1_target_trial
519,0,1718.764999997802,rose,55,190,26,52,5R4/14,22,194814,block1_target_trial
300,0,6200.639999995474,romance,72,0,79,142,10B3/10,26,185632,block1_target_trial
314,0,1816.3100000238048,robin,47,54,142,15,10GY5/12,19,219217,block1_target_trial
652,0,2377.060000086203,heaven,29,173,169,229,10PB7/8,85,211641,block2_target_trial
519,0,2928.220000001602,mansion,12,255,186,123,5YR8/8,23,198246,block1_target_trial
314,0,1326.714999973774,pain,55,190,26,52,5R4/14,20,221051,block1_target_trial
300,0,4484.134999976959,tarantula,24,203,172,0,10Y7/12,27,190622,block1_target_trial
519,0,2064.635000017006,toe,78,75,41,23,5YR2/4,24,200815,block1_target_trial
314,0,1888.5499999742024,chalk,10,233,232,231,N9,21,223447,block1_target_trial
652,0,1749.3300000205636,ache,45,170,103,0,10YR5/10,87,215645,block2_target_trial
519,0,1550.0100000062955,chalk,41,170,136,191,5P6/8,25,202878,block1_target_trial
314,0,1465.435000020079,playfulness,25,103,196,96,10GY7/10,22,225417,block1_target_trial
652,0,1672.04499989748,excitement,44,216,65,0,10R5/16,89,219703,block2_target_trial
314,0,1903.9950000005776,pheasant,46,141,120,0,10Y5/8,23,227827,block1_target_trial
519,0,2095.489999977872,fork,65,107,108,107,N4,26,205491,block1_target_trial
519,0,1858.8699999963865,staple,87,59,58,58,N2,27,207870,block1_target_trial
314,0,2265.6500000157394,bone,10,233,232,231,N9,24,230599,block1_target_trial
300,0,7713.499999954365,mansion,13,252,190,0,5Y8/14,28,198842,block1_target_trial
652,0,1337.6599999610337,fork,87,59,58,58,N2,91,223388,block2_target_trial
314,0,1959.8450000048615,faith,50,0,146,196,10B5/12,25,233067,block1_target_trial
519,0,2631.9800000055693,desire,40,96,151,219,5PB6/10,28,211006,block1_target_trial
314,0,1207.0400000084192,rose,33,239,107,106,5R6/12,26,234781,block1_target_trial
652,0,1288.9149999246,mansion,57,116,95,21,5Y4/6,93,226775,block2_target_trial
314,0,1247.2500000149012,lemon,2,238,234,140,10Y9/6,27,236535,block1_target_trial
519,0,3063.9099999680184,pheasant,72,0,79,142,10B3/10,29,214574,block1_target_trial
300,0,6218.695000046864,lemon,13,252,190,0,5Y8/14,29,205566,block1_target_trial
519,0,2614.9100000038743,temptation,77,99,14,38,5R2/8,30,217702,block1_target_trial
300,0,2848.0499999714084,divinity,15,135,220,178,5G8/6,30,208920,block1_target_trial
314,0,6630.525000044145,sadness,72,0,79,142,10B3/10,28,243673,block1_target_trial
519,0,3663.319999992382,heroism,27,29,194,202,10BG7/8,31,221870,block1_target_trial
314,0,1481.8649999797344,computer,37,29,171,113,5G6/10,29,245661,block1_target_trial
519,0,2237.585000053514,robin,22,254,147,109,10R7/10,32,224622,block1_target_trial
314,0,1501.1299999896437,heaven,2,238,234,140,10Y9/6,30,247671,block1_target_trial
300,0,6633.585000003222,heaven,5,205,236,235,10BG9/2,31,216060,block1_target_trial
519,0,1704.280000005383,divinity,42,226,110,159,5RP6/12,33,226830,block1_target_trial
314,0,1379.3900000164283,success,2,238,234,140,10Y9/6,31,249553,block1_target_trial
652,0,13135.550000006331,computer,87,59,58,58,N2,95,242220,block2_target_trial
314,0,1497.8550000232644,staple,10,233,232,231,N9,32,251557,block1_target_trial
300,0,2734.5949999871664,chalk,1,255,225,176,10YR9/4,32,219300,block1_target_trial
519,0,2268.4400000143796,romance,55,190,26,52,5R4/14,34,229606,block1_target_trial
314,0,2334.470000001602,belt,87,59,58,58,N2,33,254399,block1_target_trial
519,0,2144.2950000055134,boat,18,173,204,247,5PB8/6,35,232254,block1_target_trial
652,0,2890.849999850616,urge,49,0,147,152,10BG5/10,97,247142,block2_target_trial
300,0,3305.4550000233576,rock,47,54,142,15,10GY5/12,33,223110,block1_target_trial
314,0,2514.394999947399,mansion,64,169,50,112,5RP4/12,34,257419,block1_target_trial
519,0,2503.224999993108,optimism,47,54,142,15,10GY5/12,36,235262,block1_target_trial
652,0,1461.0699999611825,desire,44,216,65,0,10R5/16,99,250933,block2_target_trial
314,0,1550.4450000007637,fork,54,136,137,135,N5,35,259479,block1_target_trial
300,0,4274.064999946859,playfulness,47,54,142,15,10GY5/12,34,227889,block1_target_trial
314,0,2088.4899999946356,urge,33,239,107,106,5R6/12,36,262075,block1_target_trial
300,0,2343.6900000087917,bone,13,252,190,0,5Y8/14,35,230739,block1_target_trial
519,0,5656.005000055302,tarantula,58,93,100,0,5GY4/8,37,241426,block1_target_trial
314,0,1406.1400000355206,divinity,63,132,71,157,5P4/12,37,263989,block1_target_trial
652,0,4324.389999965206,gloom,28,99,185,228,10B7/8,101,257145,block2_target_trial
300,0,1713.9200000092387,robin,14,184,216,68,5GY8/10,36,232959,block1_target_trial
314,0,1440.2549999649636,optimism,2,238,234,140,10Y9/6,38,265935,block1_target_trial
519,0,1747.365000017453,sun,2,238,234,140,10Y9/6,38,243678,block1_target_trial
300,0,2523.67000002414,staple,2,238,234,140,10Y9/6,37,235990,block1_target_trial
314,0,1927.624999952968,fish,49,0,147,152,10BG5/10,39,268371,block1_target_trial
652,0,1112.7200000919402,toe,0,245,225,219,10R9/2,103,260306,block2_target_trial
519,0,2680.999999982305,faith,85,73,31,87,5P2/8,39,246861,block1_target_trial
314,0,1598.7849999801256,boat,79,56,49,32,5Y2/2,40,270477,block1_target_trial
300,0,1903.5000000149012,temptation,26,64,196,164,10G7/8,38,238398,block1_target_trial
652,0,1388.9850000850856,tarantula,87,59,58,58,N2,105,263671,block2_target_trial
519,0,2208.8949999888428,urge,75,139,23,66,10RP3/10,40,249573,block1_target_trial
314,0,1413.559999957215,excitement,24,203,172,0,10Y7/12,41,272399,block1_target_trial
300,0,2515.170000027865,shampoo,26,64,196,164,10G7/8,39,241418,block1_target_trial
314,0,1921.4849999989383,toe,64,169,50,112,5RP4/12,42,274827,block1_target_trial
652,0,1405.585000058636,rock,54,136,137,135,N5,107,266984,block2_target_trial
519,0,3424.005000037141,ache,80,46,52,38,5GY2/2,41,253501,block1_target_trial
300,0,1645.699999993667,gloom,15,135,220,178,5G8/6,40,243568,block1_target_trial
314,0,1736.3350000232458,corpse,44,216,65,0,10R5/16,43,277071,block1_target_trial
652,0,1357.2549999225885,pheasant,13,252,190,0,5Y8/14,109,270034,block2_target_trial
300,0,2234.244999999646,boat,16,151,214,204,5BG8/4,41,246312,block1_target_trial
519,0,2411.229999968782,belt,83,0,63,80,5B2/6,42,256417,block1_target_trial
314,0,2809.4549999805167,appearance,32,181,182,181,N7,44,280387,block1_target_trial
300,0,1723.7849999801256,relief,4,203,237,224,10G9/2,42,248542,block1_target_trial
519,0,1831.3750000088476,fish,14,184,216,68,5GY8/10,43,258765,block1_target_trial
314,0,1759.2050000093875,relief,60,0,118,107,5BG4/8,45,282653,block1_target_trial
652,0,2543.210000032559,faith,45,170,103,0,10YR5/10,111,275436,block2_target_trial
519,0,2616.8849999667145,lemon,13,252,190,0,5Y8/14,44,261885,block1_target_trial
314,0,2103.2649999833666,romance,75,139,23,66,10RP3/10,46,285265,block1_target_trial
300,0,4354.5000000158325,loyal,6,216,232,240,10B9/2,43,253401,block1_target_trial
519,0,2572.4449999979697,barley,47,54,142,15,10GY5/12,45,264965,block1_target_trial
314,0,1786.1249999841675,tarantula,45,170,103,0,10YR5/10,47,287557,block1_target_trial
300,0,1635.46999997925,desire,4,203,237,224,10G9/2,44,255541,block1_target_trial
314,0,1256.0649999650195,shampoo,34,231,111,0,5YR6/14,48,289319,block1_target_trial
300,0,1789.0599999809638,optimism,3,200,241,191,10GY9/4,45,257836,block1_target_trial
314,0,1368.6049999669194,sun,13,252,190,0,5Y8/14,49,291193,block1_target_trial
519,0,3392.7350000012666,success,59,0,117,66,5G4/10,46,268861,block1_target_trial
519,0,2023.794999986421,heaven,29,173,169,229,10PB7/8,47,271389,block1_target_trial
314,0,2248.844999994617,rock,65,107,108,107,N4,50,293949,block1_target_trial
300,0,5408.8550000451505,excitement,47,54,142,15,10GY5/12,46,263751,block1_target_trial
314,0,1728.560000017751,barley,2,238,234,140,10Y9/6,51,296183,block1_target_trial
652,0,11821.3949999772,success,44,216,65,0,10R5/16,113,289797,block2_target_trial
519,0,3734.0599999879487,sadness,10,233,232,231,N9,48,275642,block1_target_trial
314,0,1535.6599999940954,loyal,61,0,121,148,5B4/10,52,298227,block1_target_trial
300,0,1683.88500000583,fork,3,200,241,191,10GY9/4,47,265940,block1_target_trial
314,0,1587.2950000339188,gloom,87,59,58,58,N2,53,300325,block1_target_trial
519,0,2331.6650000051595,appearance,22,254,147,109,10R7/10,49,278477,block1_target_trial
652,0,1787.5400001648811,loyal,35,187,139,0,5Y6/10,115,293652,block2_target_trial
300,0,3394.3499999586493,computer,5,205,236,235,10BG9/2,48,269840,block1_target_trial
314,0,2209.035000007134,temptation,47,54,142,15,10GY5/12,54,303041,block1_target_trial
519,0,2000.930000038352,energy,38,0,173,154,5BG6/10,50,280981,block1_target_trial
300,0,1453.5299999988638,appearance,4,203,237,224,10G9/2,49,271800,block1_target_trial
314,0,1251.7450000159442,energy,36,136,152,0,5GY6/10,55,304803,block1_target_trial
652,0,1202.7899997774512,sun,13,252,190,0,5Y8/14,117,296799,block2_target_trial
300,0,1544.080000021495,barley,3,200,241,191,10GY9/4,50,273850,block1_target_trial
652,0,1104.1600001044571,bone,0,245,225,219,10R9/2,119,300164,block2_target_trial
652,0,1329.2249999940395,energy,13,252,190,0,5Y8/14,121,303175,block2_target_trial
652,0,192.95500009320676,fish,82,0,62,57,5BG2/6,123,304846,block2_target_trial
519,0,9378.544999985024,bone,5,205,236,235,10BG9/2,51,290864,block1_target_trial
519,0,1748.989999992773,shampoo,25,103,196,96,10GY7/10,52,293117,block1_target_trial
314,0,3213.1550000049174,tarantula,66,137,34,17,10R3/10,58,317119,block2_target_trial
300,0,6893.5899999924,fish,54,136,137,135,N5,52,285100,block1_target_trial
519,0,3542.3849999788217,corpse,80,46,52,38,5GY2/2,53,297165,block1_target_trial
300,0,2104.2250000173226,ache,4,203,237,224,10G9/2,53,287709,block1_target_trial
652,0,2585.135000059381,rose,33,239,107,106,5R6/12,125,312779,block2_target_trial
314,0,1607.579999952577,energy,47,54,142,15,10GY5/12,60,321701,block2_target_trial
300,0,2385.279999987688,heroism,2,238,234,140,10Y9/6,54,290599,block1_target_trial
652,0,958.8999999687076,staple,26,64,196,164,10G7/8,127,315406,block2_target_trial
314,0,1295.220000029076,belt,87,59,58,58,N2,62,325131,block2_target_trial
652,0,1258.7999999523165,heroism,63,132,71,157,5P4/12,129,318293,block2_target_trial
300,0,3432.8150000073947,pain,44,216,65,0,10R5/16,55,294539,block1_target_trial
300,0,1802.079999994021,urge,3,200,241,191,10GY9/4,56,296849,block1_target_trial
519,0,9392.244999995455,excitement,13,252,190,0,5Y8/14,54,307061,block1_target_trial
652,0,1325.3099999856204,belt,87,59,58,58,N2,131,321367,block2_target_trial
652,0,1186.4749998785555,boat,50,0,146,196,10B5/12,133,324126,block2_target_trial
314,0,2408.259999996517,success,50,0,146,196,10B5/12,64,333222,block2_target_trial
519,0,4598.844999971334,pain,55,190,26,52,5R4/14,55,312165,block1_target_trial
652,0,2272.340000141412,relief,44,216,65,0,10R5/16,135,327805,block2_target_trial
314,0,1239.9049999658018,sadness,72,0,79,142,10B3/10,66,336346,block2_target_trial
300,0,4651.215000019874,success,47,54,142,15,10GY5/12,58,304918,block2_target_trial
652,0,1209.559999871999,divinity,38,0,173,154,5BG6/10,137,331119,block2_target_trial
314,0,1687.7600000007078,bone,21,202,202,202,N8,68,340311,block2_target_trial
519,0,5664.170000003651,rock,65,107,108,107,N4,56,318333,block1_target_trial
314,0,1287.8299999865703,barley,2,238,234,140,10Y9/6,70,343836,block2_target_trial
314,0,1887.8350000013595,rose,55,190,26,52,5R4/14,72,347857,block2_target_trial
314,0,2233.8999999919906,loyal,47,54,142,15,10GY5/12,74,351999,block2_target_trial
314,0,1751.7099999822676,desire,63,132,71,157,5P4/12,76,355651,block2_target_trial
300,0,2414.5450000069104,relief,2,238,234,140,10Y9/6,60,328512,block2_target_trial
314,0,1471.980000031181,urge,44,216,65,0,10R5/16,78,361940,block2_target_trial
314,0,1240.059999981895,pain,55,190,26,52,5R4/14,80,365554,block2_target_trial
314,0,1616.0350000136532,faith,50,0,146,196,10B5/12,82,369285,block2_target_trial
314,0,1831.1700000194833,boat,59,0,117,66,5G4/10,84,373131,block2_target_trial
300,0,5265.494999999646,bone,3,200,241,191,10GY9/4,62,343591,block2_target_trial
314,0,1567.8399999742396,optimism,2,238,234,140,10Y9/6,86,376496,block2_target_trial
314,0,1342.4200000008568,fish,50,0,146,196,10B5/12,88,379956,block2_target_trial
314,0,1575.5400000489317,excitement,24,203,172,0,10Y7/12,90,383522,block2_target_trial
300,0,2414.7000000230037,urge,5,205,236,235,10BG9/2,64,352470,block2_target_trial
314,0,1959.6099999616856,temptation,55,190,26,52,5R4/14,92,387373,block2_target_trial
314,0,2119.635000010021,computer,40,96,151,219,5PB6/10,94,391507,block2_target_trial
300,0,3234.9649999523535,pain,44,216,65,0,10R5/16,66,361150,block2_target_trial
314,0,1839.5299999974668,lemon,13,252,190,0,5Y8/14,96,395697,block2_target_trial
519,0,2569.499999983236,corpse,79,56,49,32,5Y2/2,58,373564,block2_target_trial
314,0,2302.945000003092,corpse,44,216,65,0,10R5/16,98,400391,block2_target_trial
300,0,1975.8600000059232,desire,1,255,225,176,10YR9/4,68,368380,block2_target_trial
314,0,1727.8250000090338,relief,72,0,79,142,10B3/10,100,403795,block2_target_trial
519,0,2148.6600000062026,fish,27,29,194,202,10BG7/8,60,381980,block2_target_trial
314,0,2510.424999985844,rock,87,59,58,58,N2,103,409955,block2_target_trial
519,0,4612.725000013597,romance,55,190,26,52,5R4/14,62,389692,block2_target_trial
314,0,2810.1950000273064,gloom,82,0,62,57,5BG2/6,105,415043,block2_target_trial
300,0,5434.6300000324845,faith,47,54,142,15,10GY5/12,71,384482,block2_target_trial
519,0,2299.924999999348,heaven,17,158,211,223,5B8/4,64,395700,block2_target_trial
314,0,1551.7300000065006,toe,87,59,58,58,N2,107,418895,block2_target_trial
314,0,1263.890000001993,playfulness,35,187,139,0,5Y6/10,109,422029,block2_target_trial
519,0,3244.944999984,rock,54,136,137,135,N5,66,401708,block2_target_trial
300,0,2222.5350000080653,corpse,3,200,241,191,10GY9/4,73,392871,block2_target_trial
314,0,2889.679999963846,appearance,47,54,142,15,10GY5/12,111,427027,block2_target_trial
519,0,2980.870000028517,robin,22,254,147,109,10R7/10,68,407396,block2_target_trial
314,0,1335.964999976568,mansion,46,141,120,0,10Y5/8,113,430383,block2_target_trial
314,0,1487.750000029337,fork,62,0,113,178,5PB4/12,115,434333,block2_target_trial
314,0,1200.0250000273809,heroism,35,187,139,0,5Y6/10,117,437513,block2_target_trial
300,0,7438.364999950863,heroism,27,29,194,202,10BG7/8,75,406641,block2_target_trial
519,0,5252.604999986943,optimism,28,99,185,228,10B7/8,70,417195,block2_target_trial
314,0,1471.8850000062955,divinity,62,0,113,178,5PB4/12,119,440821,block2_target_trial
314,0,1295.6049999920651,sun,13,252,190,0,5Y8/14,121,443937,block2_target_trial
300,0,3413.174999994226,rose,33,239,107,106,5R6/12,77,414400,block2_target_trial
314,0,1357.6699999975972,pheasant,46,141,120,0,10Y5/8,123,447325,block2_target_trial
314,0,1336.219999997411,staple,21,202,202,202,N8,125,450611,block2_target_trial
519,0,9740.884999977425,mansion,15,135,220,178,5G8/6,72,429172,block2_target_trial
314,0,1375.995000009425,shampoo,61,0,121,148,5B4/10,127,453799,block2_target_trial
300,0,2888.745000003837,rock,47,54,142,15,10GY5/12,79,423140,block2_target_trial
314,0,1375.7799999439158,heaven,2,238,234,140,10Y9/6,129,457579,block2_target_trial
314,0,1319.8249999550171,robin,68,76,74,29,10Y3/4,131,461041,block2_target_trial
314,0,1310.4900000034831,ache,44,216,65,0,10R5/16,133,464309,block2_target_trial
314,0,1528.2249999581836,romance,63,132,71,157,5P4/12,135,467689,block2_target_trial
300,0,3839.1450000344776,temptation,4,203,237,224,10G9/2,81,436888,block2_target_trial
314,0,1248.1450000195764,chalk,21,202,202,202,N8,137,470541,block2_target_trial
300,0,3078.8199999951757,fish,32,181,182,181,N7,83,444562,block2_target_trial
300,0,2175.409999967087,pheasant,3,200,241,191,10GY9/4,85,451402,block2_target_trial
300,0,8594.120000023395,energy,47,54,142,15,10GY5/12,87,467280,block2_target_trial
300,0,3255.50500000827,playfulness,24,203,172,0,10Y7/12,89,476100,block2_target_trial
519,0,11884.74499998847,belt,43,163,162,162,N6,74,491964,block2_target_trial
300,0,2505.2750000031665,toe,3,200,241,191,10GY9/4,91,484609,block2_target_trial
300,0,5028.739999979734,sun,23,244,150,0,10YR7/14,93,494289,block2_target_trial
300,0,2202.4550000205636,tarantula,2,238,234,140,10Y9/6,95,501868,block2_target_trial
300,0,3664.29500002414,mansion,47,54,142,15,10GY5/12,97,510032,block2_target_trial
519,0,2447.3550000111572,excitement,29,173,169,229,10PB7/8,77,521179,block2_target_trial
300,0,2392.875000019558,divinity,1,255,225,176,10YR9/4,99,516841,block2_target_trial
519,0,2164.950000005774,appearance,40,96,151,219,5PB6/10,79,532203,block2_target_trial
300,0,3865.8000000286847,heaven,4,203,237,224,10G9/2,101,527311,block2_target_trial
300,0,2491.2100000074133,lemon,13,252,190,0,5Y8/14,103,534080,block2_target_trial
300,0,3550.6249999743886,computer,4,203,237,224,10G9/2,105,542610,block2_target_trial
519,0,13076.014999998732,divinity,59,0,117,66,5G4/10,81,555555,block2_target_trial
300,0,2445.614999975078,gloom,5,205,236,235,10BG9/2,107,549590,block2_target_trial
300,0,1815.6399999861603,appearance,2,238,234,140,10Y9/6,109,556479,block2_target_trial
300,0,3114.369999966584,shampoo,27,29,194,202,10BG7/8,111,564448,block2_target_trial
519,0,22556.715000013355,bone,0,245,225,219,10R9/2,83,581538,block2_target_trial
300,0,3883.600000001025,loyal,2,238,234,140,10Y9/6,113,573562,block2_target_trial
300,0,2854.8050000099465,excitement,7,229,228,239,10PB9/2,115,580731,block2_target_trial
519,0,8884.924999962095,gloom,68,76,74,29,10Y3/4,85,593882,block2_target_trial
300,0,3355.7049999944866,sadness,80,46,52,38,5GY2/2,117,588490,block2_target_trial
300,0,2135.7650000136346,boat,3,200,241,191,10GY9/4,119,595310,block2_target_trial
519,0,9444.62000002386,desire,75,139,23,66,10RP3/10,87,606826,block2_target_trial
300,0,1966.6449999785984,belt,2,238,234,140,10Y9/6,121,601960,block2_target_trial
300,0,3721.049999992829,romance,62,0,113,178,5PB4/12,123,610109,block2_target_trial
300,0,1826.0950000258165,staple,3,200,241,191,10GY9/4,125,616160,block2_target_trial
300,0,7013.63499998115,fork,15,135,220,178,5G8/6,127,627328,block2_target_trial
519,0,22996.639999968465,tarantula,87,59,58,58,N2,89,638426,block2_target_trial
300,0,1855.4349999758415,barley,4,203,237,224,10G9/2,129,633912,block2_target_trial
519,0,3437.165000010282,success,15,135,220,178,5G8/6,91,645241,block2_target_trial
300,0,2275.344999972731,robin,5,205,236,235,10BG9/2,131,640552,block2_target_trial
519,0,7404.999999969732,sadness,4,203,237,224,10G9/2,93,655641,block2_target_trial
300,0,1634.9250000203028,chalk,3,200,241,191,10GY9/4,133,646011,block2_target_trial
300,0,1614.0099999611266,optimism,4,203,237,224,10G9/2,135,651410,block2_target_trial
519,0,6948.210000002291,lemon,2,238,234,140,10Y9/6,95,665801,block2_target_trial
735,0,2951.390000001993,computer,87,59,58,58,N2,16,72672,block1_target_trial
300,0,2195.8449999801815,ache,3,200,241,191,10GY9/4,137,657630,block2_target_trial
735,0,2648.270000005141,belt,78,75,41,23,5YR2/4,17,75824,block1_target_trial
735,0,4429.27000002237,urge,55,190,26,52,5R4/14,18,80758,block1_target_trial
735,0,1977.5749999680556,staple,10,233,232,231,N9,19,83238,block1_target_trial
519,0,8895.140000036918,playfulness,14,184,216,68,5GY8/10,97,679369,block2_target_trial
735,0,3465.5149999889545,faith,10,233,232,231,N9,20,87208,block1_target_trial
735,0,2753.820000041742,boat,50,0,146,196,10B5/12,21,90466,block1_target_trial
735,0,2219.5150000043213,pain,55,190,26,52,5R4/14,22,93190,block1_target_trial
735,0,4073.739999963436,barley,45,170,103,0,10YR5/10,24,100174,block1_target_trial
735,0,3744.2099999752822,toe,1,255,225,176,10YR9/4,25,104422,block1_target_trial
735,0,7036.084999970626,gloom,84,0,58,101,5PB2/8,26,111962,block1_target_trial
519,0,24876.48499995703,fork,54,136,137,135,N5,99,707665,block2_target_trial
735,0,1921.8700000201352,success,13,252,190,0,5Y8/14,27,114388,block1_target_trial
519,0,1991.0699999891224,rose,66,137,34,17,10R3/10,101,713337,block2_target_trial
735,0,4640.955000009853,pheasant,21,202,202,202,N8,28,119531,block1_target_trial
735,0,2665.7649999833666,fish,28,99,185,228,10B7/8,29,122700,block1_target_trial
735,0,2748.8700000103563,chalk,10,233,232,231,N9,30,125951,block1_target_trial
735,0,3775.09499998996,divinity,10,233,232,231,N9,31,130229,block1_target_trial
519,0,5627.704999991693,heroism,87,59,58,58,N2,103,726152,block2_target_trial
735,0,2009.169999975711,rock,67,100,65,8,10YR3/6,32,132742,block1_target_trial
735,0,2210.389999963809,temptation,55,190,26,52,5R4/14,33,135455,block1_target_trial
735,0,7101.07999999309,excitement,2,238,234,140,10Y9/6,34,143060,block1_target_trial
735,0,2371.9249999849126,rose,33,239,107,106,5R6/12,35,145935,block1_target_trial
735,0,2570.0899999937974,playfulness,13,252,190,0,5Y8/14,36,149008,block1_target_trial
735,0,4479.21999997925,energy,13,252,190,0,5Y8/14,37,153990,block1_target_trial
735,0,3185.0049999775365,sun,23,244,150,0,10YR7/14,38,157677,block1_target_trial
519,0,14977.565000008326,pheasant,87,59,58,58,N2,105,753102,block2_target_trial
735,0,2219.4449999951757,relief,17,158,211,223,5B8/4,39,160400,block1_target_trial
735,0,1742.935000045691,bone,10,233,232,231,N9,40,162646,block1_target_trial
519,0,3428.9299999945797,pain,55,190,26,52,5R4/14,107,760737,block2_target_trial
735,0,3601.4049999648705,romance,55,190,26,52,5R4/14,41,166750,block1_target_trial
735,0,2766.7399999918416,heaven,10,233,232,231,N9,42,170020,block1_target_trial
519,0,2342.754999990575,temptation,26,64,196,164,10G7/8,109,766275,block2_target_trial
346,0,3025.5250000045635,barley,56,146,80,27,5YR4/8,16,78874,block1_target_trial
735,0,2163.3049999945797,appearance,5,205,236,235,10BG9/2,43,172686,block1_target_trial
735,0,2070.2950000413693,desire,55,190,26,52,5R4/14,44,175259,block1_target_trial
346,0,2641.414999990957,loyal,28,99,185,228,10B7/8,17,82025,block1_target_trial
346,0,4028.729999990901,belt,79,56,49,32,5Y2/2,18,86559,block1_target_trial
735,0,4438.360000029206,mansion,13,252,190,0,5Y8/14,45,180201,block1_target_trial
346,0,1876.8649999983609,sun,2,238,234,140,10Y9/6,19,88944,block1_target_trial
735,0,3451.8650000100024,lemon,2,238,234,140,10Y9/6,46,184155,block1_target_trial
346,0,3055.3000000072643,faith,6,216,232,240,10B9/2,20,92506,block1_target_trial
735,0,1846.7199999722652,tarantula,87,59,58,58,N2,47,186506,block1_target_trial
346,0,2540.340000006836,ache,87,59,58,58,N2,21,95552,block1_target_trial
735,0,2403.6400000331923,ache,55,190,26,52,5R4/14,48,189412,block1_target_trial
346,0,2419.530000013765,divinity,47,54,142,15,10GY5/12,22,98478,block1_target_trial
346,0,2653.344999998808,desire,44,216,65,0,10R5/16,23,101637,block1_target_trial
519,0,12484.839999990072,chalk,29,173,169,229,10PB7/8,111,789665,block2_target_trial
735,0,6718.640000035521,heroism,13,252,190,0,5Y8/14,49,196634,block1_target_trial
346,0,3891.205000021728,success,25,103,196,96,10GY7/10,24,106034,block1_target_trial
735,0,2865.8249999862164,robin,62,0,113,178,5PB4/12,50,200003,block1_target_trial
519,0,2381.3500000396743,staple,87,59,58,58,N2,113,795505,block2_target_trial
735,0,2095.514999993611,loyal,13,252,190,0,5Y8/14,51,202602,block1_target_trial
346,0,3343.7750000157394,romance,44,216,65,0,10R5/16,25,109888,block1_target_trial
519,0,2197.0100000035018,computer,25,103,196,96,10GY7/10,115,800728,block2_target_trial
346,0,4340.7399999850895,playfulness,12,255,186,123,5YR8/8,26,114736,block1_target_trial
735,0,5525.324999995064,optimism,18,173,204,247,5PB8/6,52,208631,block1_target_trial
735,0,1450.0049999915063,fork,32,181,182,181,N7,53,210584,block1_target_trial
346,0,2230.169999995269,boat,21,202,202,202,N8,27,117476,block1_target_trial
519,0,3788.569999975152,boat,40,96,151,219,5PB6/10,117,807184,block2_target_trial
346,0,1475.3450000134762,rose,20,246,186,205,5RP8/6,28,119456,block1_target_trial
735,0,3008.7899999925867,sadness,84,0,58,101,5PB2/8,54,214096,block1_target_trial
346,0,3611.7400000221096,pheasant,82,0,62,57,5BG2/6,29,123577,block1_target_trial
519,0,2580.885000003036,faith,12,255,186,123,5YR8/8,119,812240,block2_target_trial
735,0,4983.524999988731,corpse,58,93,100,0,5GY4/8,55,219582,block1_target_trial
346,0,2646.3999999978114,temptation,53,218,64,108,10RP5/14,30,126729,block1_target_trial
346,0,2080.0550000276417,lemon,2,238,234,140,10Y9/6,31,129315,block1_target_trial
735,0,2604.9800000037067,shampoo,5,205,236,235,10BG9/2,56,222689,block1_target_trial
519,0,2749.0050000487827,sun,2,238,234,140,10Y9/6,121,817800,block2_target_trial
346,0,1993.7100000097416,fork,10,233,232,231,N9,32,131812,block1_target_trial
346,0,3672.859999991488,optimism,80,46,52,38,5GY2/2,33,135993,block1_target_trial
735,0,5833.415000000969,shampoo,5,205,236,235,10BG9/2,58,233034,block2_target_trial
519,0,1981.050000002142,relief,6,216,232,240,10B9/2,123,828408,block2_target_trial
346,0,4595.394999982091,robin,44,216,65,0,10R5/16,34,141094,block1_target_trial
346,0,3460.560000006808,tarantula,87,59,58,58,N2,35,145061,block1_target_trial
735,0,1699.0500000538304,playfulness,13,252,190,0,5Y8/14,60,240332,block2_target_trial
346,0,5747.379999986151,relief,28,99,185,228,10B7/8,36,151312,block1_target_trial
346,0,4058.9399999880698,sadness,79,56,49,32,5Y2/2,37,155878,block1_target_trial
346,0,1736.1149999778718,corpse,79,56,49,32,5Y2/2,38,158119,block1_target_trial
519,0,12851.419999962673,toe,78,75,41,23,5YR2/4,125,846768,block2_target_trial
735,0,1687.22500000149,tarantula,87,59,58,58,N2,62,253243,block2_target_trial
346,0,3975.3900000068825,bone,56,146,80,27,5YR4/8,39,162602,block1_target_trial
519,0,3533.244999998715,loyal,27,29,194,202,10BG7/8,127,853248,block2_target_trial
346,0,3571.2599999969825,appearance,67,100,65,8,10YR3/6,40,166680,block1_target_trial
735,0,4011.7849999805912,heaven,10,233,232,231,N9,64,261772,block2_target_trial
346,0,3025.2350000082515,heaven,2,238,234,140,10Y9/6,41,170212,block1_target_trial
346,0,2578.9550000044983,staple,32,181,182,181,N7,42,173299,block1_target_trial
735,0,2191.5800000424497,belt,67,100,65,8,10YR3/6,66,267760,block2_target_trial
519,0,8732.03499999363,barley,47,54,142,15,10GY5/12,129,864887,block2_target_trial
735,0,1459.1549999895506,sun,23,244,150,0,10YR7/14,68,272731,block2_target_trial
346,0,6801.230000011856,shampoo,7,229,228,239,10PB9/2,43,180604,block1_target_trial
346,0,2518.9249999821186,excitement,25,103,196,96,10GY7/10,44,183628,block1_target_trial
735,0,2045.7600000081584,corpse,69,32,83,38,10GY3/6,70,277256,block2_target_trial
519,0,6229.159999988042,urge,29,173,169,229,10PB7/8,131,873519,block2_target_trial
346,0,1782.0750000246337,pain,80,46,52,38,5GY2/2,45,185917,block1_target_trial
346,0,2945.6200000131503,chalk,42,226,110,159,5RP6/12,46,189365,block1_target_trial
735,0,1764.8899999912828,desire,55,190,26,52,5R4/14,72,284995,block2_target_trial
735,0,1547.2650000010617,lemon,2,238,234,140,10Y9/6,74,289287,block2_target_trial
346,0,3583.249999996042,mansion,66,137,34,17,10R3/10,48,196639,block1_target_trial
735,0,1557.570000004489,pain,55,190,26,52,5R4/14,76,293266,block2_target_trial
346,0,3184.1050000221003,urge,44,216,65,0,10R5/16,49,200326,block1_target_trial
50,0,4656.335000006948,robin,15,135,220,178,5G8/6,16,209278,block1_target_trial
239,0,5436.679999984335,mansion,10,233,232,231,N9,16,69442,block1_target_trial
346,0,5377.444999990985,fish,11,254,185,179,5R8/6,50,206208,block1_target_trial
735,0,2346.7749999836087,fork,21,202,202,202,N8,78,299751,block2_target_trial
519,0,2749.1099999751896,shampoo,13,252,190,0,5Y8/14,133,897159,block2_target_trial
346,0,3662.2000000206754,rock,79,56,49,32,5Y2/2,51,210377,block1_target_trial
239,0,4492.904999991879,heaven,50,0,146,196,10B5/12,17,74447,block1_target_trial
50,0,5331.1049999902025,faith,7,229,228,239,10PB9/2,17,215128,block1_target_trial
239,0,3450.8050000295043,energy,23,244,150,0,10YR7/14,18,78407,block1_target_trial
735,0,4397.65499997884,loyal,63,132,71,157,5P4/12,80,308170,block2_target_trial
346,0,4413.939999998547,computer,9,242,226,227,10RP9/2,52,215296,block1_target_trial
50,0,3757.849999994505,heaven,18,173,204,247,5PB8/6,18,219392,block1_target_trial
346,0,2131.554999999935,gloom,43,163,162,162,N6,53,217932,block1_target_trial
239,0,3237.894999969285,excitement,44,216,65,0,10R5/16,19,82154,block1_target_trial
50,0,3001.1049999739043,rock,54,136,137,135,N5,19,222901,block1_target_trial
735,0,1883.0500000040047,gloom,84,0,58,101,5PB2/8,82,312859,block2_target_trial
346,0,2208.7049999972805,energy,47,54,142,15,10GY5/12,54,220645,block1_target_trial
437,0,2933.000000193715,tarantula,49,0,147,152,10BG5/10,16,261244,block1_target_trial
239,0,3705.82499995362,tarantula,67,100,65,8,10YR3/6,20,86368,block1_target_trial
50,0,3870.404999994207,rose,55,190,26,52,5R4/14,20,227276,block1_target_trial
437,0,1978.9999998174608,mansion,37,29,171,113,5G6/10,17,263734,block1_target_trial
346,0,4163.594999990892,heroism,28,99,185,228,10B7/8,55,225316,block1_target_trial
50,0,3494.3650000495836,romance,53,218,64,108,10RP5/14,21,231288,block1_target_trial
437,0,3424.000000115484,playfulness,31,238,151,162,10RP7/8,18,267665,block1_target_trial
239,0,5014.740000013262,chalk,10,233,232,231,N9,21,91892,block1_target_trial
346,0,2783.46999999485,toe,45,170,103,0,10YR5/10,56,228608,block1_target_trial
519,0,16884.974999993574,ache,70,0,88,63,10G3/8,135,917359,block2_target_trial
50,0,2548.5050000133924,shampoo,10,233,232,231,N9,22,234352,block1_target_trial
735,0,2846.3099999935366,robin,62,0,113,178,5PB4/12,84,324111,block2_target_trial
437,0,2766.9999999925494,romance,20,246,186,205,5RP8/6,19,270939,block1_target_trial
239,0,2472.9650000226684,barley,47,54,142,15,10GY5/12,22,94872,block1_target_trial
437,0,2251.9999998621643,loyal,73,79,58,135,10PB3/10,20,273704,block1_target_trial
239,0,2422.1700000343844,rose,55,190,26,52,5R4/14,23,97802,block1_target_trial
50,0,3629.8350000288337,boat,18,173,204,247,5PB8/6,23,238490,block1_target_trial
50,0,2405.4999999934807,appearance,1,255,225,176,10YR9/4,24,241412,block1_target_trial
239,0,3695.8549999981183,corpse,21,202,202,202,N8,24,102003,block1_target_trial
735,0,4899.765000038315,appearance,2,238,234,140,10Y9/6,86,332523,block2_target_trial
50,0,2414.5949999801815,gloom,65,107,108,107,N4,25,244332,block1_target_trial
239,0,3154.274999978952,loyal,58,93,100,0,5GY4/8,25,105673,block1_target_trial
346,0,4257.440000015777,corpse,86,91,20,66,5RP2/8,58,244451,block2_target_trial
239,0,2742.5799999618903,gloom,57,116,95,21,5Y4/6,26,108924,block1_target_trial
735,0,3309.9749999819323,fish,28,99,185,228,10B7/8,88,339706,block2_target_trial
239,0,5284.719999996014,optimism,83,0,63,80,5B2/6,27,114714,block1_target_trial
346,0,2203.3599999849685,energy,47,54,142,15,10GY5/12,60,251741,block2_target_trial
735,0,2417.0999999623746,romance,55,190,26,52,5R4/14,90,345843,block2_target_trial
239,0,2179.7350000124425,fork,7,229,228,239,10PB9/2,28,117401,block1_target_trial
519,0,17203.62499996554,energy,36,136,152,0,5GY6/10,137,942029,block2_target_trial
239,0,3346.66500001913,rock,43,163,162,162,N6,29,121254,block1_target_trial
735,0,4149.559999990743,urge,55,190,26,52,5R4/14,92,352245,block2_target_trial
50,0,19025.265000003856,belt,87,59,58,58,N2,26,263875,block1_target_trial
346,0,4047.294999996666,ache,46,141,120,0,10Y5/8,63,260610,block2_target_trial
239,0,4839.514999999665,divinity,84,0,58,101,5PB2/8,30,126603,block1_target_trial
50,0,2914.074999978766,computer,21,202,202,202,N8,27,267299,block1_target_trial
239,0,2512.899999972433,pheasant,0,245,225,219,10R9/2,31,129623,block1_target_trial
346,0,2851.040000008652,tarantula,67,100,65,8,10YR3/6,65,266473,block2_target_trial
50,0,3945.460000017192,playfulness,25,103,196,96,10GY7/10,28,271753,block1_target_trial
735,0,4813.12499998603,faith,2,238,234,140,10Y9/6,94,362009,block2_target_trial
239,0,2767.9650000063702,playfulness,25,103,196,96,10GY7/10,32,132899,block1_target_trial
346,0,1838.8450000202283,rock,32,181,182,181,N7,67,270430,block2_target_trial
239,0,2008.3899999735877,shampoo,62,0,113,178,5PB4/12,33,135414,block1_target_trial
50,0,4627.779999980703,barley,24,203,172,0,10Y7/12,29,276895,block1_target_trial
346,0,2770.9000000031665,loyal,47,54,142,15,10GY5/12,69,276113,block2_target_trial
50,0,3396.2650000466965,bone,10,233,232,231,N9,30,280806,block1_target_trial
347,0,9847.905000206085,romance,66,137,34,17,10R3/10,16,144909,block1_target_trial
239,0,3169.839999987744,lemon,13,252,190,0,5Y8/14,35,141360,block1_target_trial
735,0,5989.694999996573,relief,28,99,185,228,10B7/8,96,371219,block2_target_trial
50,0,3020.0199999962933,loyal,74,118,39,110,10P3/10,31,284332,block1_target_trial
239,0,3551.9100000383332,toe,10,233,232,231,N9,36,145419,block1_target_trial
735,0,1383.6049999808893,bone,10,233,232,231,N9,98,377291,block2_target_trial
50,0,3577.340000018012,sadness,72,0,79,142,10B3/10,32,288422,block1_target_trial
239,0,2114.750000007916,bone,32,181,182,181,N7,37,148041,block1_target_trial
346,0,3172.9149999737274,shampoo,6,216,232,240,10B9/2,71,285103,block2_target_trial
735,0,1131.340000021737,chalk,10,233,232,231,N9,100,381275,block2_target_trial
50,0,4091.825000010431,success,13,252,190,0,5Y8/14,33,293024,block1_target_trial
239,0,4433.640000002924,desire,25,103,196,96,10GY7/10,38,152983,block1_target_trial
346,0,2485.629999981029,barley,67,100,65,8,10YR3/6,73,289725,block2_target_trial
347,0,13353.559999959543,ache,55,190,26,52,5R4/14,17,158765,block1_target_trial
735,0,1906.3500000047495,mansion,13,252,190,0,5Y8/14,102,385689,block2_target_trial
239,0,2613.3649999974295,urge,44,216,65,0,10R5/16,39,156109,block1_target_trial
346,0,1636.014999996405,fork,10,233,232,231,N9,75,293402,block2_target_trial
50,0,4924.614999967162,fish,37,29,171,113,5G6/10,34,298466,block1_target_trial
239,0,2535.68000002997,staple,21,202,202,202,N8,40,159152,block1_target_trial
735,0,1757.4049999821,temptation,55,190,26,52,5R4/14,104,390279,block2_target_trial
239,0,1871.999999973923,sun,13,252,190,0,5Y8/14,41,161531,block1_target_trial
346,0,3665.9249999793246,gloom,43,163,162,162,N6,77,299253,block2_target_trial
50,0,4561.564999981783,excitement,18,173,204,247,5PB8/6,35,303540,block1_target_trial
239,0,2256.3950000330806,robin,49,0,147,152,10BG5/10,42,164295,block1_target_trial
346,0,1616.9149999914223,divinity,50,0,146,196,10B5/12,79,303405,block2_target_trial
50,0,3614.560000016354,pain,66,137,34,17,10R3/10,36,307678,block1_target_trial
735,0,5161.135000002105,barley,46,141,120,0,10Y5/8,106,397455,block2_target_trial
239,0,4290.09500000393,computer,10,233,232,231,N9,43,169095,block1_target_trial
50,0,2967.5000000279397,tarantula,78,75,41,23,5YR2/4,37,311180,block1_target_trial
437,0,73250,toe,34,231,111,0,5YR6/14,21,347470,block1_target_trial
346,0,1896.0150000057183,staple,10,233,232,231,N9,81,307704,block2_target_trial
735,0,1390.030000009574,energy,13,252,190,0,5Y8/14,108,401757,block2_target_trial
239,0,2654.0050000185147,belt,67,100,65,8,10YR3/6,44,172256,block1_target_trial
50,0,2967.3300000140443,fork,32,181,182,181,N7,38,314657,block1_target_trial
346,0,1719.875000009779,faith,40,96,151,219,5PB6/10,83,311860,block2_target_trial
735,0,1201.024999958463,success,13,252,190,0,5Y8/14,110,405913,block2_target_trial
239,0,5002.229999983683,success,84,0,58,101,5PB2/8,45,177766,block1_target_trial
50,0,3791.765000030864,temptation,41,170,136,191,5P6/8,39,318961,block1_target_trial
346,0,1689.7250000038184,chalk,42,226,110,159,5RP6/12,85,316124,block2_target_trial
347,0,25926.380000077188,pheasant,45,170,103,0,10YR5/10,18,185197,block1_target_trial
735,0,1843.945000029635,optimism,13,252,190,0,5Y8/14,112,411759,block2_target_trial
50,0,3217.594999994617,ache,33,239,107,106,5R6/12,40,322691,block1_target_trial
239,0,4674.505000002682,temptation,12,255,186,123,5YR8/8,46,182945,block1_target_trial
346,0,2751.139999978477,pain,79,56,49,32,5Y2/2,87,321191,block2_target_trial
735,0,3891.935000021476,toe,12,255,186,123,5YR8/8,114,418408,block2_target_trial
239,0,5612.399999983609,romance,44,216,65,0,10R5/16,47,189066,block1_target_trial
50,0,6573.680000030436,pheasant,83,0,63,80,5B2/6,41,329782,block1_target_trial
346,0,2793.949999992037,appearance,45,170,103,0,10YR5/10,89,326227,block2_target_trial
239,0,2651.2949999887496,relief,72,0,79,142,10B3/10,48,192224,block1_target_trial
399,0,4464.18999999878,temptation,67,100,65,8,10YR3/6,16,203698,block1_target_trial
346,0,2477.4150000012014,computer,9,242,226,227,10RP9/2,91,331253,block2_target_trial
239,0,2639.1350000048988,pain,44,216,65,0,10R5/16,49,195371,block1_target_trial
735,0,4099.739999976009,sadness,85,73,31,87,5P2/8,116,426175,block2_target_trial
50,0,3907.8499999595806,relief,11,254,185,179,5R8/6,43,337290,block1_target_trial
399,0,2538.444999998319,romance,55,190,26,52,5R4/14,17,206746,block1_target_trial
239,0,3104.295000026468,boat,35,187,139,0,5Y6/10,50,198983,block1_target_trial
347,0,17523.760000010952,gloom,87,59,58,58,N2,19,203226,block1_target_trial
346,0,2817.475000018021,bone,67,100,65,8,10YR3/6,93,336313,block2_target_trial
399,0,2640.3399999981048,corpse,79,56,49,32,5Y2/2,18,209889,block1_target_trial
50,0,3079.3899999698624,divinity,13,252,190,0,5Y8/14,44,340885,block1_target_trial
735,0,1682.0050000096671,divinity,13,252,190,0,5Y8/14,118,430703,block2_target_trial
239,0,3060.620000003837,faith,29,173,169,229,10PB7/8,51,202551,block1_target_trial
399,0,2694.7849999996834,urge,60,0,118,107,5BG4/8,19,213087,block1_target_trial
346,0,2718.6800000199582,mansion,11,254,185,179,5R8/6,95,341023,block2_target_trial
239,0,2258.1200000131503,fish,39,0,174,198,5B6/10,52,205317,block1_target_trial
735,0,1429.0799999726005,heroism,13,252,190,0,5Y8/14,120,435953,block2_target_trial
399,0,2634.249999988242,desire,64,169,50,112,5RP4/12,20,216230,block1_target_trial
239,0,1981.4100000075996,sadness,84,0,58,101,5PB2/8,53,207806,block1_target_trial
346,0,2809.2799999867566,rose,20,246,186,205,5RP8/6,97,348168,block2_target_trial
735,0,3987.744999991264,rose,55,190,26,52,5R4/14,122,442153,block2_target_trial
239,0,4169.549999991432,appearance,18,173,204,247,5PB8/6,54,212482,block1_target_trial
50,0,12624.06000000192,mansion,79,56,49,32,5Y2/2,45,354025,block1_target_trial
347,0,14384.834999917077,divinity,17,158,211,223,5B8/4,20,218114,block1_target_trial
399,0,2940.8499999990454,robin,53,218,64,108,10RP5/14,22,223802,block1_target_trial
239,0,3441.244999994524,ache,33,239,107,106,5R6/12,55,216431,block1_target_trial
346,0,2928.72999998508,sadness,79,56,49,32,5Y2/2,99,353034,block2_target_trial
399,0,2095.8949999912875,fork,32,181,182,181,N7,23,226402,block1_target_trial
735,0,1770.974999992177,staple,21,202,202,202,N8,124,446797,block2_target_trial
50,0,3591.794999956619,energy,52,181,89,164,10P5/12,46,358130,block1_target_trial
239,0,2846.595000009984,heroism,59,0,117,66,5G4/10,56,219787,block1_target_trial
399,0,2781.889999998384,optimism,39,0,174,198,5B6/10,24,229696,block1_target_trial
346,0,1605.7100000034552,belt,79,56,49,32,5Y2/2,101,356816,block2_target_trial
399,0,1734.4600000069477,lemon,13,252,190,0,5Y8/14,25,231935,block1_target_trial
50,0,5063.714999996591,urge,1,255,225,176,10YR9/4,47,363698,block1_target_trial
735,0,2164.5300000091083,computer,87,59,58,58,N2,126,453767,block2_target_trial
239,0,2213.8700000359677,computer,8,237,227,233,10P9/2,58,224060,block2_target_trial
346,0,2333.9649999979883,excitement,50,0,146,196,10B5/12,103,361255,block2_target_trial
399,0,2152.1349999966333,loyal,50,0,146,196,10B5/12,26,234596,block1_target_trial
347,0,11581.140000140294,robin,23,244,150,0,10YR7/14,21,230200,block1_target_trial
50,0,3079.4849999947473,staple,21,202,202,202,N8,48,367286,block1_target_trial
399,0,3243.690000002971,faith,13,252,190,0,5Y8/14,27,238348,block1_target_trial
346,0,2363.065000012284,temptation,44,216,65,0,10R5/16,105,365818,block2_target_trial
38,0,2699.6650000001537,staple,54,136,137,135,N5,17,267851,block1_target_trial
239,0,1975.1899999682792,playfulness,44,216,65,0,10R5/16,60,230735,block2_target_trial
50,0,3913.170000014361,lemon,2,238,234,140,10Y9/6,49,371713,block1_target_trial
399,0,2716.290000011213,belt,80,46,52,38,5GY2/2,28,241570,block1_target_trial
735,0,2449.7649999684654,boat,62,0,113,178,5PB4/12,128,461889,block2_target_trial
38,0,3726.5900000020047,faith,1,255,225,176,10YR9/4,18,272098,block1_target_trial
346,0,4005.335000023478,urge,48,0,149,112,10G5/10,107,372090,block2_target_trial
399,0,3685.4050000110874,toe,1,255,225,176,10YR9/4,29,245760,block1_target_trial
735,0,2015.4449999681672,ache,55,190,26,52,5R4/14,130,467123,block2_target_trial
239,0,1872.444999986328,bone,10,233,232,231,N9,63,238752,block2_target_trial
38,0,4949.184999997611,boat,48,0,149,112,10G5/10,19,277561,block1_target_trial
399,0,2709.289999998873,playfulness,40,96,151,219,5PB6/10,30,248974,block1_target_trial
346,0,1936.8550000071991,heaven,5,205,236,235,10BG9/2,109,375816,block2_target_trial
50,0,7600.034999952186,heroism,33,239,107,106,5R6/12,50,379833,block1_target_trial
347,0,13405.895000090824,sadness,84,0,58,101,5PB2/8,22,244109,block1_target_trial
735,0,3210.0699999718927,rock,67,100,65,8,10YR3/6,132,472878,block2_target_trial
399,0,3007.305000006454,relief,59,0,117,66,5G4/10,31,252485,block1_target_trial
347,0,4608.539999928325,toe,12,255,186,123,5YR8/8,23,249223,block1_target_trial
346,0,4121.01000000257,heroism,62,0,113,178,5PB4/12,111,382396,block2_target_trial
38,0,6532.470000001893,heaven,4,203,237,224,10G9/2,20,284602,block1_target_trial
399,0,2893.914999993285,ache,66,137,34,17,10R3/10,32,255883,block1_target_trial
50,0,6822.325000015553,optimism,28,99,185,228,10B7/8,51,387166,block1_target_trial
239,0,3721.9549999572337,heaven,50,0,146,196,10B5/12,65,246985,block2_target_trial
735,0,2624.5900000212714,excitement,13,252,190,0,5Y8/14,134,478037,block2_target_trial
399,0,2294.2049999983283,staple,43,163,162,162,N6,33,258682,block1_target_trial
50,0,3851.7599999904633,corpse,66,137,34,17,10R3/10,52,391533,block1_target_trial
346,0,3367.165000003297,robin,44,216,65,0,10R5/16,113,388674,block2_target_trial
399,0,2901.425000003655,excitement,53,218,64,108,10RP5/14,34,262089,block1_target_trial
347,0,7423.190000001341,computer,18,173,204,247,5PB8/6,24,257150,block1_target_trial
50,0,2874.7050000238232,chalk,27,29,194,202,10BG7/8,53,394925,block1_target_trial
38,0,8067.054999999586,loyal,64,169,50,112,5RP4/12,21,293191,block1_target_trial
399,0,3058.969999998226,computer,65,107,108,107,N4,35,265654,block1_target_trial
239,0,6149.144999973942,pain,44,216,65,0,10R5/16,67,256325,block2_target_trial
50,0,1401.2300000176765,sun,13,252,190,0,5Y8/14,54,396831,block1_target_trial
346,0,2939.0849999908824,fish,33,239,107,106,5R6/12,115,393493,block2_target_trial
38,0,2157.585000000836,mansion,8,237,227,233,10P9/2,22,295862,block1_target_trial
735,0,6810.624999983702,pheasant,32,181,182,181,N7,136,487465,block2_target_trial
346,0,1612.9650000075344,playfulness,50,0,146,196,10B5/12,117,396957,block2_target_trial
399,0,4283.224999991944,pheasant,57,116,95,21,5Y4/6,36,270445,block1_target_trial
38,0,3039.5050000005867,temptation,66,137,34,17,10R3/10,23,299423,block1_target_trial
50,0,4273.184999998193,toe,1,255,225,176,10YR9/4,55,401614,block1_target_trial
239,0,2411.3149999757297,rock,21,202,202,202,N8,69,261907,block2_target_trial
347,0,10114.790000021458,heroism,40,96,151,219,5PB6/10,25,267768,block1_target_trial
346,0,2188.639999978477,lemon,2,238,234,140,10Y9/6,119,401170,block2_target_trial
399,0,3626.254999995581,chalk,0,245,225,219,10R9/2,37,274579,block1_target_trial
239,0,1671.3599999784492,staple,10,233,232,231,N9,71,266332,block2_target_trial
50,0,5255.829999980051,desire,52,181,89,164,10P5/12,56,407385,block1_target_trial
346,0,1724.580000009155,optimism,50,0,146,196,10B5/12,121,404691,block2_target_trial
399,0,3874.729999995907,sadness,82,0,62,57,5BG2/6,38,278960,block1_target_trial
399,0,2308.8750000024447,appearance,38,0,173,154,5BG6/10,39,281777,block1_target_trial
346,0,2991.7900000000373,pheasant,31,238,151,162,10RP7/8,123,410205,block2_target_trial
239,0,3842.699999979231,pheasant,2,238,234,140,10Y9/6,73,273910,block2_target_trial
347,0,10084.18000000529,mansion,85,73,31,87,5P2/8,26,278357,block1_target_trial
399,0,2116.634999998496,rose,55,190,26,52,5R4/14,40,284399,block1_target_trial
38,0,16290.440000000644,fork,32,181,182,181,N7,24,316231,block1_target_trial
399,0,2935.4049999965355,fish,21,202,202,202,N8,41,287837,block1_target_trial
38,0,432.7799999991548,optimism,32,181,182,181,N7,25,317178,block1_target_trial
346,0,3166.399999987334,toe,45,170,103,0,10YR5/10,125,415530,block2_target_trial
239,0,3169.60999998264,loyal,26,64,196,164,10G7/8,75,279898,block2_target_trial
347,0,5708.789999829605,shampoo,26,64,196,164,10G7/8,27,284569,block1_target_trial
38,0,2333.8800000019837,lemon,13,252,190,0,5Y8/14,26,320027,block1_target_trial
399,0,3069.2649999982677,rock,65,107,108,107,N4,42,291412,block1_target_trial
346,0,2059.964999993099,sun,13,252,190,0,5Y8/14,127,420533,block2_target_trial
399,0,2491.2400000030175,sun,13,252,190,0,5Y8/14,43,294409,block1_target_trial
38,0,2718.1300000010524,rose,31,238,151,162,10RP7/8,27,323259,block1_target_trial
239,0,2017.3899999936111,success,47,54,142,15,10GY5/12,77,286505,block2_target_trial
399,0,2340.7900000020163,tarantula,87,59,58,58,N2,44,297256,block1_target_trial
346,0,1797.2149999986868,romance,44,216,65,0,10R5/16,129,425681,block2_target_trial
38,0,4353.350000001257,robin,44,216,65,0,10R5/16,28,328122,block1_target_trial
399,0,2647.6499999989755,barley,57,116,95,21,5Y4/6,45,300408,block1_target_trial
239,0,1868.7250000075437,appearance,4,203,237,224,10G9/2,79,292174,block2_target_trial
38,0,2810.2550000002957,sun,13,252,190,0,5Y8/14,29,331451,block1_target_trial
399,0,4401.484999994864,pain,44,216,65,0,10R5/16,46,305317,block1_target_trial
346,0,3975.265000015497,relief,27,29,194,202,10BG7/8,131,432643,block2_target_trial
346,0,2008.6949999968056,desire,44,216,65,0,10R5/16,133,438090,block2_target_trial
38,0,8219.49500000116,sadness,5,205,236,235,10BG9/2,30,340186,block1_target_trial
399,0,5856.879999992088,bone,7,229,228,239,10PB9/2,47,311682,block1_target_trial
239,0,6059.034999983851,desire,5,205,236,235,10BG9/2,81,302203,block2_target_trial
347,0,22807.130000088364,energy,23,244,150,0,10YR7/14,28,307879,block1_target_trial
399,0,2476.620000001276,boat,62,0,113,178,5PB4/12,48,314664,block1_target_trial
50,0,4496.325000014622,loyal,41,170,136,191,5P6/8,58,445712,block2_target_trial
346,0,1383.1049999862444,success,50,0,146,196,10B5/12,135,442180,block2_target_trial
399,0,3812.545000007958,heroism,51,124,112,186,10PB5/10,49,318982,block1_target_trial
239,0,3692.7700000233017,tarantula,45,170,103,0,10YR5/10,83,309382,block2_target_trial
346,0,2467.210000002524,boat,21,202,202,202,N8,137,446915,block2_target_trial
38,0,9272.875000002388,gloom,76,82,82,81,N3,31,349977,block1_target_trial
399,0,2617.7350000070874,energy,58,93,100,0,5GY4/8,50,322109,block1_target_trial
239,0,2329.904999991413,boat,39,0,174,198,5B6/10,85,314898,block2_target_trial
399,0,2478.514999995241,shampoo,12,255,186,123,5YR8/8,51,325091,block1_target_trial
347,0,12006.530000129716,fish,50,0,146,196,10B5/12,29,320390,block1_target_trial
38,0,4304.035000001022,excitement,24,203,172,0,10Y7/12,32,354798,block1_target_trial
50,0,2773.3100000186823,fish,26,64,196,164,10G7/8,60,458760,block2_target_trial
399,0,2537.079999994603,success,75,139,23,66,10RP3/10,52,328131,block1_target_trial
38,0,2763.3999999997905,barley,69,32,83,38,10GY3/6,33,358072,block1_target_trial
399,0,2156.969999996363,mansion,83,0,63,80,5B2/6,53,330794,block1_target_trial
239,0,3520.8500000298955,excitement,13,252,190,0,5Y8/14,87,322066,block2_target_trial
399,0,3582.2299999999814,divinity,80,46,52,38,5GY2/2,54,334880,block1_target_trial
38,0,5226.380000000121,tarantula,80,46,52,38,5GY2/2,34,363816,block1_target_trial
347,0,9319.38000000082,bone,1,255,225,176,10YR9/4,30,330214,block1_target_trial
50,0,4094.594999973197,barley,24,203,172,0,10Y7/12,62,466989,block2_target_trial
239,0,2363.2850000285544,temptation,34,231,111,0,5YR6/14,89,327608,block2_target_trial
399,0,2415.5900000041584,gloom,87,59,58,58,N2,55,337799,block1_target_trial
239,0,1518.640000023879,energy,44,216,65,0,10R5/16,91,331314,block2_target_trial
399,0,3149.390000005951,heaven,18,173,204,247,5PB8/6,56,341453,block1_target_trial
437,0,160378.00000002608,belt,45,170,103,0,10YR5/10,22,508360,block1_target_trial
50,0,2090.0649999966845,belt,87,59,58,58,N2,64,472916,block2_target_trial
239,0,2715.3999999864027,heroism,39,0,174,198,5B6/10,93,337053,block2_target_trial
50,0,3269.0699999802746,success,13,252,190,0,5Y8/14,66,479810,block2_target_trial
399,0,3522.435000006226,fork,32,181,182,181,N7,58,352912,block2_target_trial
239,0,1685.7249999884516,toe,9,242,226,227,10RP9/2,95,343353,block2_target_trial
409,0,4035.2149999234825,barley,36,136,152,0,5GY6/10,16,89490,block1_target_trial
409,0,1846.8549998942765,belt,56,146,80,27,5YR4/8,17,91846,block1_target_trial
50,0,5531.310000049416,heroism,11,254,185,179,5R8/6,68,488154,block2_target_trial
239,0,1687.5350000336766,sun,13,252,190,0,5Y8/14,97,347851,block2_target_trial
409,0,2326.0999999474734,shampoo,0,245,225,219,10R9/2,18,94690,block1_target_trial
409,0,2798.614999977872,tarantula,67,100,65,8,10YR3/6,19,98006,block1_target_trial
239,0,1491.939999978058,corpse,10,233,232,231,N9,99,353034,block2_target_trial
347,0,27565.385000081733,relief,6,216,232,240,10B9/2,31,358283,block1_target_trial
50,0,3402.7949999435805,rock,54,136,137,135,N5,70,497056,block2_target_trial
409,0,4286.75500000827,pheasant,10,233,232,231,N9,20,102810,block1_target_trial
239,0,1956.2600000062955,sadness,72,0,79,142,10B3/10,101,357825,block2_target_trial
409,0,3603.7250000517815,appearance,61,0,121,148,5B4/10,21,106921,block1_target_trial
399,0,6776.205000001937,faith,44,216,65,0,10R5/16,60,371685,block2_target_trial
239,0,1990.8249999862164,mansion,10,233,232,231,N9,103,362762,block2_target_trial
409,0,3297.230000142008,sadness,87,59,58,58,N2,22,110731,block1_target_trial
347,0,11119.160000002012,heaven,18,173,204,247,5PB8/6,32,369905,block1_target_trial
239,0,2141.4850000292063,robin,50,0,146,196,10B5/12,105,367610,block2_target_trial
409,0,2205.504999961704,divinity,9,242,226,227,10RP9/2,23,113455,block1_target_trial
38,0,43581.0799999999,shampoo,19,211,197,223,5P8/4,35,407915,block1_target_trial
239,0,2080.439999990631,rose,44,216,65,0,10R5/16,107,372354,block2_target_trial
409,0,4484.070000005886,lemon,2,238,234,140,10Y9/6,24,118456,block1_target_trial
38,0,3718.33500000136,chalk,10,233,232,231,N9,36,412150,block1_target_trial
409,0,2699.305000016466,rose,44,216,65,0,10R5/16,25,121675,block1_target_trial
347,0,9753.4699998796,rose,44,216,65,0,10R5/16,33,380164,block1_target_trial
399,0,1890.834999998333,lemon,13,252,190,0,5Y8/14,62,386049,block2_target_trial
38,0,4008.5499999986496,heroism,59,0,117,66,5G4/10,37,416671,block1_target_trial
38,0,2998.9299999978975,fish,9,242,226,227,10RP9/2,38,420186,block1_target_trial
399,0,2499.45000000298,rock,76,82,82,81,N3,64,392015,block2_target_trial
409,0,7028.205000096932,mansion,79,56,49,32,5Y2/2,26,129221,block1_target_trial
239,0,2043.7399999937045,belt,56,146,80,27,5YR4/8,109,384145,block2_target_trial
50,0,25050.120000028983,pheasant,78,75,41,23,5YR2/4,72,525476,block2_target_trial
437,0,54238.00000036135,computer,7,229,228,239,10PB9/2,23,563109,block1_target_trial
38,0,5261.205000002519,computer,10,233,232,231,N9,39,425965,block1_target_trial
399,0,2069.0899999899557,shampoo,12,255,186,123,5YR8/8,66,397612,block2_target_trial
347,0,13091.809999896212,urge,34,231,111,0,5YR6/14,34,393760,block1_target_trial
437,0,4182.000000029802,bone,10,233,232,231,N9,24,567805,block1_target_trial
239,0,3424.14000001736,shampoo,50,0,146,196,10B5/12,111,392532,block2_target_trial
409,0,8548.135000048205,pain,83,0,63,80,5B2/6,27,138289,block1_target_trial
50,0,3257.8600000124425,optimism,28,99,185,228,10B7/8,74,533454,block2_target_trial
38,0,6118.089999999967,corpse,57,116,95,21,5Y4/6,40,432601,block1_target_trial
347,0,4403.7299999035895,fork,20,246,186,205,5RP8/6,35,398668,block1_target_trial
399,0,3809.890000004089,temptation,74,118,39,110,10P3/10,68,404776,block2_target_trial
409,0,2260.3750000707805,fork,43,163,162,162,N6,28,141069,block1_target_trial
38,0,2188.9900000024354,energy,19,211,197,223,5P8/4,41,435303,block1_target_trial
239,0,2302.239999989979,gloom,72,0,79,142,10B3/10,113,397569,block2_target_trial
50,0,3339.1950000077486,bone,10,233,232,231,N9,76,539522,block2_target_trial
409,0,3642.604999942705,corpse,87,59,58,58,N2,29,145225,block1_target_trial
399,0,2334.115000005113,ache,55,190,26,52,5R4/14,70,410079,block2_target_trial
409,0,2904.2149998713285,excitement,23,244,150,0,10YR7/14,30,148649,block1_target_trial
239,0,1940.0250000180677,lemon,13,252,190,0,5Y8/14,115,403830,block2_target_trial
38,0,7013.135000001057,ache,34,231,111,0,5YR6/14,42,442840,block1_target_trial
399,0,2319.9750000057975,chalk,0,245,225,219,10R9/2,72,415315,block2_target_trial
409,0,3034.2599998693913,success,39,0,174,198,5B6/10,31,152201,block1_target_trial
38,0,1613.645000001241,appearance,7,229,228,239,10PB9/2,43,444973,block1_target_trial
50,0,4085.510000004433,urge,51,124,112,186,10PB5/10,78,548823,block2_target_trial
38,0,2203.6649999973015,belt,67,100,65,8,10YR3/6,44,447688,block1_target_trial
409,0,3272.7799999993294,ache,55,190,26,52,5R4/14,32,155995,block1_target_trial
399,0,2014.4900000013877,staple,21,202,202,202,N8,74,421265,block2_target_trial
239,0,8625.620000006165,chalk,10,233,232,231,N9,117,415755,block2_target_trial
409,0,6041.8899999931455,romance,53,218,64,108,10RP5/14,33,162555,block1_target_trial
399,0,3842.544999992242,barley,56,146,80,27,5YR4/8,76,428413,block2_target_trial
347,0,24846.475000027567,appearance,27,29,194,202,10BG7/8,36,424017,block1_target_trial
50,0,5516.684999980498,boat,28,99,185,228,10B7/8,80,560419,block2_target_trial
239,0,1521.8849999946542,ache,23,244,150,0,10YR7/14,119,420154,block2_target_trial
409,0,3338.074999861419,robin,44,216,65,0,10R5/16,34,166411,block1_target_trial
409,0,2401.1049999389797,staple,43,163,162,162,N6,35,169332,block1_target_trial
239,0,2120.1449999934994,romance,44,216,65,0,10R5/16,121,425246,block2_target_trial
399,0,3468.9649999927497,heaven,28,99,185,228,10B7/8,78,434987,block2_target_trial
38,0,15866.10500000097,success,18,173,204,247,5PB8/6,45,464072,block1_target_trial
347,0,6687.129999976605,temptation,13,252,190,0,5Y8/14,37,431208,block1_target_trial
50,0,4898.374999989755,playfulness,25,103,196,96,10GY7/10,82,568893,block2_target_trial
409,0,5237.220000009984,computer,50,0,146,196,10B5/12,36,175075,block1_target_trial
239,0,2168.0000000051223,fish,27,29,194,202,10BG7/8,123,431835,block2_target_trial
399,0,3545.185000009951,desire,75,139,23,66,10RP3/10,80,442287,block2_target_trial
347,0,6916.854999959469,pain,55,190,26,52,5R4/14,38,438630,block1_target_trial
239,0,1643.8799999887124,urge,23,244,150,0,10YR7/14,125,436829,block2_target_trial
399,0,2322.280000007595,tarantula,87,59,58,58,N2,82,447676,block2_target_trial
347,0,4732.399999862537,belt,67,100,65,8,10YR3/6,39,443866,block1_target_trial
409,0,7423.960000043735,temptation,47,54,142,15,10GY5/12,38,186025,block1_target_trial
239,0,2149.9100000364706,fork,8,237,227,233,10P9/2,127,442296,block2_target_trial
409,0,1816.6599997784945,sun,13,252,190,0,5Y8/14,39,188358,block1_target_trial
50,0,10296.944999950938,energy,13,252,190,0,5Y8/14,84,583354,block2_target_trial
399,0,2866.1250000004657,rose,55,190,26,52,5R4/14,84,454058,block2_target_trial
347,0,5220.2500000130385,chalk,10,233,232,231,N9,40,449590,block1_target_trial
409,0,4196.069999830797,fish,27,29,194,202,10BG7/8,40,193073,block1_target_trial
239,0,1811.725000035949,faith,27,29,194,202,10BG7/8,129,447887,block2_target_trial
409,0,2976.425000000745,urge,34,231,111,0,5YR6/14,41,196568,block1_target_trial
50,0,4344.909999985248,appearance,1,255,225,176,10YR9/4,86,591306,block2_target_trial
437,0,58898.0000000447,sun,13,252,190,0,5Y8/14,25,627228,block1_target_trial
399,0,3794.0050000033807,belt,79,56,49,32,5Y2/2,86,461045,block2_target_trial
239,0,1617.2249999945052,barley,47,54,142,15,10GY5/12,131,452376,block2_target_trial
38,0,26862.675000000338,playfulness,17,158,211,223,5B8/4,46,491449,block1_target_trial
409,0,2144.384999992326,gloom,87,59,58,58,N2,42,199231,block1_target_trial
347,0,10287.800000049174,staple,10,233,232,231,N9,41,460381,block1_target_trial
437,0,4881.999999750406,urge,27,29,194,202,10BG7/8,26,632620,block1_target_trial
409,0,2259.624999947846,energy,13,252,190,0,5Y8/14,43,202013,block1_target_trial
239,0,2016.730000032112,divinity,50,0,146,196,10B5/12,133,456854,block2_target_trial
399,0,2571.024999997462,sun,13,252,190,0,5Y8/14,88,467516,block2_target_trial
50,0,3090.489999973215,corpse,66,137,34,17,10R3/10,88,598316,block2_target_trial
409,0,3254.6099999453872,relief,17,158,211,223,5B8/4,44,205784,block1_target_trial
239,0,1814.475000021048,optimism,50,0,146,196,10B5/12,135,461653,block2_target_trial
437,0,5248.999999836087,pheasant,39,0,174,198,5B6/10,27,638377,block1_target_trial
437,0,924.000000115484,pain,52,181,89,164,10P5/12,28,639810,block1_target_trial
409,0,3208.009999943897,faith,10,233,232,231,N9,45,209508,block1_target_trial
399,0,3226.4149999973597,heroism,40,96,151,219,5PB6/10,90,474343,block2_target_trial
437,0,791.0000002011657,rose,37,29,171,113,5G6/10,29,641108,block1_target_trial
50,0,3504.1500000515953,pain,66,137,34,17,10R3/10,90,605851,block2_target_trial
239,0,1595.7199999829754,relief,61,0,121,148,5B4/10,137,466747,block2_target_trial
347,0,10189.164999872446,playfulness,1,255,225,176,10YR9/4,42,471073,block1_target_trial
437,0,1859.9999998696148,shampoo,39,0,174,198,5B6/10,30,643478,block1_target_trial
409,0,4156.299999915063,heroism,44,216,65,0,10R5/16,46,214180,block1_target_trial
437,0,1742.9999997839332,desire,30,218,156,201,10P7/8,31,645728,block1_target_trial
38,0,17371.595000000496,urge,20,246,186,205,5RP8/6,47,509331,block1_target_trial
409,0,2479.0200002025813,rock,65,107,108,107,N4,47,217175,block1_target_trial
399,0,3475.850000002538,appearance,63,132,71,157,5P4/12,92,481397,block2_target_trial
50,0,3028.1899999827147,ache,66,137,34,17,10R3/10,92,612815,block2_target_trial
437,0,3424.000000115484,excitement,20,246,186,205,5RP8/6,32,649660,block1_target_trial
38,0,2413.4049999993294,bone,10,233,232,231,N9,48,512259,block1_target_trial
409,0,2694.8049999773502,loyal,42,226,110,159,5RP6/12,48,220386,block1_target_trial
347,0,9217.560000019148,rock,32,181,182,181,N7,43,480794,block1_target_trial
437,0,2862.999999895692,appearance,13,252,190,0,5Y8/14,33,653028,block1_target_trial
38,0,2788.335000001127,divinity,12,255,186,123,5YR8/8,49,515563,block1_target_trial
409,0,2283.405000111088,bone,10,233,232,231,N9,49,223176,block1_target_trial
399,0,2269.289999996545,toe,1,255,225,176,10YR9/4,94,488106,block2_target_trial
437,0,1382.0000002160668,heroism,16,151,214,204,5BG8/4,34,654919,block1_target_trial
409,0,1281.470000045374,heaven,10,233,232,231,N9,50,224974,block1_target_trial
437,0,606.9999998435378,optimism,40,96,151,219,5PB6/10,35,656032,block1_target_trial
437,0,770.9999997168779,fork,40,96,151,219,5PB6/10,36,657308,block1_target_trial
409,0,2762.8949999343604,optimism,24,203,172,0,10Y7/12,51,228244,block1_target_trial
50,0,5992.995000036899,robin,15,135,220,178,5G8/6,94,623038,block2_target_trial
347,0,5794.99000008218,boat,67,100,65,8,10YR3/6,44,487093,block1_target_trial
437,0,2419.999999925494,energy,13,252,190,0,5Y8/14,38,661241,block1_target_trial
38,0,8569.780000001658,desire,7,229,228,239,10PB9/2,50,524642,block1_target_trial
437,0,827.0000000484288,barley,38,0,173,154,5BG6/10,39,662574,block1_target_trial
437,0,155.9999999590218,sadness,58,93,100,0,5GY4/8,40,663234,block1_target_trial
409,0,4021.6949998866767,chalk,10,233,232,231,N9,52,232784,block1_target_trial
399,0,3543.7999999994645,divinity,40,96,151,219,5PB6/10,97,497054,block2_target_trial
437,0,754.9999998882413,divinity,67,100,65,8,10YR3/6,41,664494,block1_target_trial
437,0,898.0000000447035,lemon,69,32,83,38,10GY3/6,42,665898,block1_target_trial
409,0,2451.725000049919,boat,10,233,232,231,N9,53,235754,block1_target_trial
50,0,6048.505000013392,relief,18,173,204,247,5PB8/6,96,632718,block2_target_trial
437,0,2745.99999981001,rock,80,46,52,38,5GY2/2,43,669152,block1_target_trial
399,0,2379.4250000064494,optimism,53,218,64,108,10RP5/14,99,502994,block2_target_trial
409,0,4554.329999955371,playfulness,27,29,194,202,10BG7/8,54,240821,block1_target_trial
437,0,3282.0000001229346,temptation,40,96,151,219,5PB6/10,44,672942,block1_target_trial
437,0,304.0000000037253,ache,40,96,151,219,5PB6/10,45,673755,block1_target_trial
437,0,436.0000002197921,staple,48,0,149,112,10G5/10,46,674698,block1_target_trial
347,0,15721.605000086129,desire,41,170,136,191,5P6/8,45,503319,block1_target_trial
409,0,3888.139999937266,toe,11,254,185,179,5R8/6,55,245221,block1_target_trial
437,0,1823.0000003241005,heaven,50,0,146,196,10B5/12,47,677028,block1_target_trial
399,0,6017.584999994142,robin,55,190,26,52,5R4/14,101,511855,block2_target_trial
50,0,7272.025000012945,shampoo,6,216,232,240,10B9/2,98,642797,block2_target_trial
409,0,3274.58000020124,desire,23,244,150,0,10YR7/14,56,249012,block1_target_trial
347,0,7481.854999903589,loyal,72,0,79,142,10B3/10,46,511304,block1_target_trial
437,0,7291.999999899417,fish,32,181,182,181,N7,48,684829,block1_target_trial
399,0,4490.024999991874,romance,55,190,26,52,5R4/14,103,519955,block2_target_trial
437,0,1876.0000001639128,relief,30,218,156,201,10P7/8,49,687212,block1_target_trial
50,0,3518.775000004098,computer,54,136,137,135,N5,100,652163,block2_target_trial
38,0,25707.72500000021,pheasant,21,202,202,202,N8,51,550870,block1_target_trial
347,0,4973.414999898523,corpse,76,82,82,81,N3,47,516781,block1_target_trial
437,0,1399.9999999068675,robin,28,99,185,228,10B7/8,50,689120,block1_target_trial
437,0,254.0000001899898,corpse,38,0,173,154,5BG6/10,51,689878,block1_target_trial
437,0,346.00000036880374,gloom,28,99,185,228,10B7/8,52,690731,block1_target_trial
399,0,1869.509999989532,energy,40,96,151,219,5PB6/10,105,524953,block2_target_trial
437,0,1158.9999999850988,faith,40,96,151,219,5PB6/10,53,692406,block1_target_trial
409,0,6189.069999847561,optimism,13,252,190,0,5Y8/14,58,262039,block2_target_trial
437,0,717.9999998770654,chalk,39,0,174,198,5B6/10,54,693632,block1_target_trial
50,0,2195.670000044629,tarantula,78,75,41,23,5YR2/4,102,658116,block2_target_trial
437,0,308.9999998919666,boat,16,151,214,204,5BG8/4,55,694448,block1_target_trial
399,0,2393.0549999931827,fish,21,202,202,202,N8,107,531422,block2_target_trial
437,0,4615.999999921769,success,10,233,232,231,N9,56,699570,block1_target_trial
50,0,2453.860000008717,toe,1,255,225,176,10YR9/4,104,664303,block2_target_trial
409,0,2206.8900000303984,tarantula,67,100,65,8,10YR3/6,60,269724,block2_target_trial
347,0,14965.919999871405,excitement,34,231,111,0,5YR6/14,48,532251,block1_target_trial
437,0,1992.0000000856817,fork,39,0,174,198,5B6/10,58,704473,block2_target_trial
399,0,3691.865000000689,corpse,79,56,49,32,5Y2/2,109,538987,block2_target_trial
50,0,2428.7350000231527,fork,54,136,137,135,N5,106,669969,block2_target_trial
409,0,2159.830000018701,gloom,87,59,58,58,N2,62,276556,block2_target_trial
399,0,5274.635000008857,bone,7,229,228,239,10PB9/2,111,548015,block2_target_trial
437,0,2035.999999847263,success,8,237,227,233,10P9/2,60,715460,block2_target_trial
50,0,4314.079999981914,mansion,79,56,49,32,5Y2/2,108,680010,block2_target_trial
399,0,2010.759999990114,boat,40,96,151,219,5PB6/10,113,553652,block2_target_trial
50,0,1934.5500000054017,lemon,13,252,190,0,5Y8/14,110,686227,block2_target_trial
347,0,17376.085000112653,faith,40,96,151,219,5PB6/10,49,550130,block1_target_trial
437,0,2580.9999997727573,rose,20,246,186,205,5RP8/6,62,723226,block2_target_trial
38,0,34874.99499999825,toe,24,203,172,0,10Y7/12,52,586261,block1_target_trial
409,0,9660.659999819472,relief,17,158,211,223,5B8/4,64,294637,block2_target_trial
38,0,2376.334999997169,romance,53,218,64,108,10RP5/14,53,589153,block1_target_trial
399,0,4636.344999991707,pheasant,56,146,80,27,5YR4/8,115,560697,block2_target_trial
437,0,2115.0000002235174,shampoo,28,99,185,228,10B7/8,64,731003,block2_target_trial
38,0,4595.3750000006985,pain,66,137,34,17,10R3/10,54,594264,block1_target_trial
399,0,2779.629999989993,gloom,79,56,49,32,5Y2/2,117,566263,block2_target_trial
347,0,10257.955000037327,barley,1,255,225,176,10YR9/4,50,560892,block1_target_trial
50,0,7594.459999992978,heaven,5,205,236,235,10BG9/2,112,697925,block2_target_trial
409,0,4668.999999994412,lemon,13,252,190,0,5Y8/14,66,303739,block2_target_trial
437,0,2100.9999997913837,appearance,7,229,228,239,10PB9/2,66,737030,block2_target_trial
399,0,2021.7300000076648,loyal,62,0,113,178,5PB4/12,119,571524,block2_target_trial
409,0,2045.6700001377612,belt,56,146,80,27,5YR4/8,68,308962,block2_target_trial
38,0,6961.200000001467,relief,18,173,204,247,5PB8/6,55,601743,block1_target_trial
347,0,8432.590000098571,tarantula,78,75,41,23,5YR2/4,51,569829,block1_target_trial
50,0,5915.069999988191,gloom,84,0,58,101,5PB2/8,114,708037,block2_target_trial
437,0,2679.0000000037253,sun,34,231,111,0,5YR6/14,68,744275,block2_target_trial
409,0,1619.704999960959,bone,10,233,232,231,N9,70,314987,block2_target_trial
399,0,4218.310000011115,sadness,87,59,58,58,N2,121,579257,block2_target_trial
347,0,4184.214999899268,lemon,2,238,234,140,10Y9/6,52,574516,block1_target_trial
437,0,1563.0000000819564,ache,39,0,174,198,5B6/10,70,749554,block2_target_trial
409,0,1499.6450000908226,chalk,10,233,232,231,N9,72,319590,block2_target_trial
50,0,3051.2549999984913,rose,55,190,26,52,5R4/14,116,714909,block2_target_trial
38,0,11161.33500000066,rock,67,100,65,8,10YR3/6,56,613422,block1_target_trial
399,0,3132.01499999559,excitement,53,218,64,108,10RP5/14,123,585526,block2_target_trial
437,0,2541.0000002011657,fish,32,181,182,181,N7,72,755153,block2_target_trial
38,0,1921.6600000000328,desire,32,181,182,181,N7,58,617560,block2_target_trial
50,0,2918.394999986049,sadness,72,0,79,142,10B3/10,118,721275,block2_target_trial
399,0,2178.99000000034,playfulness,51,124,112,186,10PB5/10,125,590819,block2_target_trial
409,0,4331.890000030398,playfulness,47,54,142,15,10GY5/12,74,327354,block2_target_trial
347,0,13342.700000153854,sun,13,252,190,0,5Y8/14,53,588362,block1_target_trial
437,0,2231.999999843538,bone,8,237,227,233,10P9/2,74,761335,block2_target_trial
399,0,2204.135000007227,pain,55,190,26,52,5R4/14,127,595689,block2_target_trial
409,0,3660.009999992326,desire,44,216,65,0,10R5/16,76,334582,block2_target_trial
437,0,1421.9999997876585,optimism,40,96,151,219,5PB6/10,76,766084,block2_target_trial
347,0,8050.00999988988,success,84,0,58,101,5PB2/8,54,596916,block1_target_trial
399,0,4252.61500000488,success,47,54,142,15,10GY5/12,129,602646,block2_target_trial
50,0,9519.474999979138,temptation,52,181,89,164,10P5/12,120,734488,block2_target_trial
437,0,1474.0000003948808,tarantula,50,0,146,196,10B5/12,78,770593,block2_target_trial
409,0,4058.8599999900903,excitement,24,203,172,0,10Y7/12,78,341693,block2_target_trial
399,0,2539.6049999981187,relief,40,96,151,219,5PB6/10,131,608251,block2_target_trial
437,0,4310.000000055879,faith,7,229,228,239,10PB9/2,80,778354,block2_target_trial
409,0,1874.4650001171976,pheasant,10,233,232,231,N9,80,348753,block2_target_trial
399,0,2724.5849999890197,urge,63,132,71,157,5P4/12,133,614704,block2_target_trial
38,0,13783.609999998587,boat,7,229,228,239,10PB9/2,60,643420,block2_target_trial
50,0,6568.874999997206,excitement,13,252,190,0,5Y8/14,122,747534,block2_target_trial
437,0,2358.0000000074506,heaven,10,233,232,231,N9,82,783825,block2_target_trial
409,0,2174.265000037849,loyal,42,226,110,159,5RP6/12,82,353779,block2_target_trial
437,0,2018.0000001564624,excitement,16,151,214,204,5BG8/4,84,788749,block2_target_trial
347,0,9801.539999898523,optimism,13,252,190,0,5Y8/14,56,617447,block1_target_trial
409,0,2386.0600001644343,urge,44,216,65,0,10R5/16,84,359189,block2_target_trial
399,0,6543.874999988475,mansion,84,0,58,101,5PB2/8,135,623740,block2_target_trial
50,0,3338.854999979958,romance,55,190,26,52,5R4/14,124,756210,block2_target_trial
409,0,1811.6649999283256,rock,54,136,137,135,N5,86,363817,block2_target_trial
437,0,3500,corpse,52,181,89,164,10P5/12,86,795640,block2_target_trial
50,0,3518.549999978859,faith,28,99,185,228,10B7/8,126,763009,block2_target_trial
38,0,9101.129999999072,loyal,28,99,185,228,10B7/8,62,661783,block2_target_trial
437,0,2079.9999996088445,divinity,20,246,186,205,5RP8/6,88,800995,block2_target_trial
409,0,4100.424999836832,pain,83,0,63,80,5B2/6,88,370697,block2_target_trial
399,0,8720.79500000109,computer,85,73,31,87,5P2/8,137,638174,block2_target_trial
409,0,2992.409999947995,heroism,44,216,65,0,10R5/16,90,376925,block2_target_trial
437,0,2930.000000167638,temptation,18,173,204,247,5PB8/6,90,807588,block2_target_trial
50,0,5365.020000026561,chalk,28,99,185,228,10B7/8,128,772697,block2_target_trial
409,0,1897.7799999993297,rose,44,216,65,0,10R5/16,92,382037,block2_target_trial
437,0,2439.9999999441206,energy,13,252,190,0,5Y8/14,92,814219,block2_target_trial
50,0,4471.055000030901,divinity,13,252,190,0,5Y8/14,130,781193,block2_target_trial
38,0,5279.02499999979,appearance,4,203,237,224,10G9/2,64,679882,block2_target_trial
409,0,5575.249999994412,success,47,54,142,15,10GY5/12,94,390717,block2_target_trial
437,0,4692.999999970198,sadness,76,82,82,81,N3,94,821910,block2_target_trial
437,0,2527.0000002346933,lemon,13,252,190,0,5Y8/14,96,827354,block2_target_trial
50,0,5426.409999956377,desire,41,170,136,191,5P6/8,133,792880,block2_target_trial
347,0,8168.795000063255,urge,23,244,150,0,10YR7/14,58,657168,block2_target_trial
437,0,3140.9999998286366,chalk,10,233,232,231,N9,98,833911,block2_target_trial
50,0,1982.224999985192,sun,13,252,190,0,5Y8/14,135,799106,block2_target_trial
50,0,3975.304999970831,staple,21,202,202,202,N8,137,806847,block2_target_trial
38,0,3525.61499999871,fork,10,233,232,231,N9,66,705903,block2_target_trial
409,0,23081.570000154898,faith,10,233,232,231,N9,96,416899,block2_target_trial
347,0,6380.390000063926,bone,1,255,225,176,10YR9/4,60,676809,block2_target_trial
409,0,2824.959999881685,temptation,44,216,65,0,10R5/16,98,423082,block2_target_trial
409,0,2761.4099998027086,romance,42,226,110,159,5RP6/12,100,428209,block2_target_trial
38,0,11700.65500000061,robin,66,137,34,17,10R3/10,68,722597,block2_target_trial
409,0,2142.3950002063066,energy,13,252,190,0,5Y8/14,102,434011,block2_target_trial
409,0,2542.61999996379,sadness,87,59,58,58,N2,104,440091,block2_target_trial
409,0,2305.479999864474,boat,10,233,232,231,N9,106,445000,block2_target_trial
38,0,9158.909999998286,ache,78,75,41,23,5YR2/4,70,740418,block2_target_trial
409,0,2550.760000012815,robin,44,216,65,0,10R5/16,108,450206,block2_target_trial
409,0,2092.3650001641363,fish,27,29,194,202,10BG7/8,110,455911,block2_target_trial
347,0,19512.415000004698,excitement,34,231,111,0,5YR6/14,63,716575,block2_target_trial
409,0,3288.7549998704344,ache,44,216,65,0,10R5/16,112,462077,block2_target_trial
38,0,16286.785000000147,heroism,17,158,211,223,5B8/4,72,760868,block2_target_trial
409,0,4920.909999869764,appearance,27,29,194,202,10BG7/8,114,469504,block2_target_trial
409,0,2817.449999973178,sun,13,252,190,0,5Y8/14,116,474801,block2_target_trial
38,0,4989.3099999971455,temptation,16,151,214,204,5BG8/4,74,771313,block2_target_trial
347,0,14733.450000174344,rose,55,190,26,52,5R4/14,65,737795,block2_target_trial
409,0,1404.6500001568347,heaven,10,233,232,231,N9,118,479554,block2_target_trial
409,0,3759.719999972731,barley,47,54,142,15,10GY5/12,120,486723,block2_target_trial
38,0,2603.455000000424,energy,13,252,190,0,5Y8/14,76,783867,block2_target_trial
409,0,2242.519999854266,toe,11,254,185,179,5R8/6,122,492276,block2_target_trial
347,0,5351.534999907017,optimism,13,252,190,0,5Y8/14,67,750973,block2_target_trial
409,0,1504.285000031814,staple,43,163,162,162,N6,124,496761,block2_target_trial
409,0,1566.890000132844,divinity,10,233,232,231,N9,126,502518,block2_target_trial
38,0,9402.62499999872,corpse,67,100,65,8,10YR3/6,78,797175,block2_target_trial
347,0,4488.899999996647,rock,43,163,162,162,N6,69,764270,block2_target_trial
409,0,2395.194999873638,computer,39,0,174,198,5B6/10,128,507625,block2_target_trial
38,0,4832.474999999278,romance,55,190,26,52,5R4/14,80,805325,block2_target_trial
409,0,1661.9100000243634,shampoo,0,245,225,219,10R9/2,130,513515,block2_target_trial
409,0,1984.1599999926984,mansion,69,32,83,38,10GY3/6,132,519027,block2_target_trial
347,0,5343.510000035167,desire,41,170,136,191,5P6/8,71,778821,block2_target_trial
38,0,4009.544999997248,bone,10,233,232,231,N9,82,813711,block2_target_trial
38,0,3011.4800000011455,computer,20,246,186,205,5RP8/6,84,819936,block2_target_trial
347,0,2491.6950000915676,corpse,87,59,58,58,N2,73,788580,block2_target_trial
409,0,4105.570000130683,fork,32,181,182,181,N7,135,532789,block2_target_trial
38,0,1958.1700000016715,excitement,25,103,196,96,10GY7/10,86,826009,block2_target_trial
409,0,1949.5600000955164,corpse,87,59,58,58,N2,137,538799,block2_target_trial
347,0,7458.365000085905,heaven,6,216,232,240,10B9/2,75,805152,block2_target_trial
38,0,12409.609999998822,pheasant,2,238,234,140,10Y9/6,88,841661,block2_target_trial
38,0,2010.5849999999627,mansion,7,229,228,239,10PB9/2,90,847233,block2_target_trial
38,0,3800.699999999837,shampoo,4,203,237,224,10G9/2,92,853736,block2_target_trial
347,0,7486.819999990985,barley,1,255,225,176,10YR9/4,77,821090,block2_target_trial
38,0,2692.620000001625,success,23,244,150,0,10YR7/14,94,861363,block2_target_trial
347,0,6509.620000142604,faith,28,99,185,228,10B7/8,79,834684,block2_target_trial
38,0,2864.6200000003446,rock,10,233,232,231,N9,96,869151,block2_target_trial
38,0,1938.0200000014156,heaven,2,238,234,140,10Y9/6,98,877641,block2_target_trial
38,0,1827.674999996787,fish,28,99,185,228,10B7/8,101,886209,block2_target_trial
347,0,15540.589999873191,appearance,27,29,194,202,10BG7/8,81,860328,block2_target_trial
38,0,7588.084999999381,optimism,15,135,220,178,5G8/6,103,896594,block2_target_trial
347,0,3271.774999797344,lemon,2,238,234,140,10Y9/6,83,868954,block2_target_trial
38,0,8631.999999997788,pain,66,137,34,17,10R3/10,105,908964,block2_target_trial
347,0,2373.17999987863,pain,55,190,26,52,5R4/14,85,876466,block2_target_trial
38,0,2651.4099999986356,belt,78,75,41,23,5YR2/4,107,914702,block2_target_trial
347,0,5625.525000039488,tarantula,78,75,41,23,5YR2/4,87,887383,block2_target_trial
38,0,5477.694999997737,tarantula,65,107,108,107,N4,109,922727,block2_target_trial
38,0,3654.3199999978538,barley,14,184,216,68,5GY8/10,111,928967,block2_target_trial
347,0,4670.979999937117,boat,67,100,65,8,10YR3/6,89,902925,block2_target_trial
38,0,6477.504999998957,sadness,50,0,146,196,10B5/12,113,938528,block2_target_trial
38,0,1929.1599999996831,chalk,10,233,232,231,N9,115,943795,block2_target_trial
347,0,2916.914999950677,fork,21,202,202,202,N8,91,911230,block2_target_trial
38,0,2575.279999997234,gloom,76,82,82,81,N3,117,950663,block2_target_trial
347,0,3424.5850001461804,romance,77,99,14,38,5R2/8,93,921294,block2_target_trial
38,0,3092.5349999998,faith,2,238,234,140,10Y9/6,119,960256,block2_target_trial
347,0,1962.9049999639392,chalk,10,233,232,231,N9,95,927933,block2_target_trial
38,0,3816.3700000003446,divinity,0,245,225,219,10R9/2,121,967240,block2_target_trial
347,0,2516.784999985248,shampoo,15,135,220,178,5G8/6,97,934642,block2_target_trial
38,0,3363.474999998347,rose,55,190,26,52,5R4/14,123,973245,block2_target_trial
347,0,6148.580000037327,energy,23,244,150,0,10YR7/14,99,949316,block2_target_trial
38,0,11235.94999999844,urge,22,254,147,109,10R7/10,125,987903,block2_target_trial
38,0,2797.2950000002747,relief,15,135,220,178,5G8/6,127,995012,block2_target_trial
347,0,6754.759999923408,ache,44,216,65,0,10R5/16,101,964631,block2_target_trial
38,0,4686.975000000559,lemon,13,252,190,0,5Y8/14,129,1002515,block2_target_trial
38,0,3608.7049999986775,staple,21,202,202,202,N8,131,1009186,block2_target_trial
437,0,311733.00000000745,heroism,27,29,194,202,10BG7/8,100,1148730,block2_target_trial
347,0,5007.839999860153,toe,12,255,186,123,5YR8/8,103,978202,block2_target_trial
38,0,1940.3750000018624,sun,2,238,234,140,10Y9/6,133,1014286,block2_target_trial
437,0,1344.0000000409782,rock,28,99,185,228,10B7/8,102,1153453,block2_target_trial
437,0,1579.0000003762543,barley,40,96,151,219,5PB6/10,104,1158538,block2_target_trial
347,0,4431.644999887794,success,84,0,58,101,5PB2/8,105,989162,block2_target_trial
38,0,6083.969999999623,toe,68,76,74,29,10Y3/4,135,1023452,block2_target_trial
437,0,3685.0000000558794,robin,18,173,204,247,5PB8/6,106,1164837,block2_target_trial
437,0,2614.0000000596046,toe,73,79,58,135,10PB3/10,108,1170225,block2_target_trial
38,0,5598.969999999157,playfulness,20,246,186,205,5RP8/6,137,1033982,block2_target_trial
437,0,1555.9999998658895,staple,15,135,220,178,5G8/6,110,1174853,block2_target_trial
347,0,5564.5699999295175,sun,13,252,190,0,5Y8/14,107,1003351,block2_target_trial
437,0,2938.0000000819564,romance,17,158,211,223,5B8/4,112,1181020,block2_target_trial
347,0,4195.744999917224,heroism,50,0,146,196,10B5/12,109,1012103,block2_target_trial
437,0,1387.000000104308,desire,41,170,136,191,5P6/8,114,1185452,block2_target_trial
437,0,2782.999999821186,mansion,61,0,121,148,5B4/10,116,1191779,block2_target_trial
437,0,1172.0000002533195,computer,40,96,151,219,5PB6/10,118,1195918,block2_target_trial
347,0,13400.690000038594,pheasant,45,170,103,0,10YR5/10,111,1029259,block2_target_trial
437,0,3016.9999999925494,boat,18,173,204,247,5PB8/6,120,1201518,block2_target_trial
437,0,1505.9999995864928,belt,20,246,186,205,5RP8/6,122,1206674,block2_target_trial
347,0,3275.6999998819083,loyal,72,0,79,142,10B3/10,113,1037627,block2_target_trial
437,0,1246.0000002756717,relief,17,158,211,223,5B8/4,124,1210774,block2_target_trial
437,0,1191.0000001080334,loyal,49,0,147,152,10BG5/10,126,1214598,block2_target_trial
437,0,2181.000000331551,urge,30,218,156,201,10P7/8,128,1220344,block2_target_trial
437,0,1336.00000012666,gloom,18,173,204,247,5PB8/6,130,1225307,block2_target_trial
437,0,1561.9999999180436,pheasant,7,229,228,239,10PB9/2,132,1229329,block2_target_trial
437,0,1616.0000003874302,playfulness,18,173,204,247,5PB8/6,134,1234126,block2_target_trial
347,0,20917.205000063404,temptation,13,252,190,0,5Y8/14,115,1063237,block2_target_trial
437,0,1814.9999999441209,pain,8,237,227,233,10P9/2,136,1238701,block2_target_trial
347,0,2662.620000075549,computer,18,173,204,247,5PB8/6,117,1070809,block2_target_trial
347,0,7759.589999914169,divinity,6,216,232,240,10B9/2,119,1084155,block2_target_trial
347,0,2935.825000051409,gloom,87,59,58,58,N2,121,1090042,block2_target_trial
347,0,3944.9099998455495,relief,6,216,232,240,10B9/2,123,1099916,block2_target_trial
347,0,4321.865000063553,playfulness,1,255,225,176,10YR9/4,125,1110460,block2_target_trial
347,0,3414.809999987483,sadness,84,0,58,101,5PB2/8,127,1121678,block2_target_trial
347,0,6010.804999852553,robin,23,244,150,0,10YR7/14,129,1131181,block2_target_trial
347,0,3597.520000068471,staple,10,233,232,231,N9,131,1138439,block2_target_trial
347,0,3749.840000178665,belt,67,100,65,8,10YR3/6,133,1148273,block2_target_trial
347,0,4571.944999974221,mansion,85,73,31,87,5P2/8,135,1157904,block2_target_trial
347,0,4552.944999886677,fish,40,96,151,219,5PB6/10,137,1168361,block2_target_trial
612,0,4178,faith,27,29,194,202,10BG7/8,16,90702,block1_target_trial
612,0,2732,tarantula,25,103,196,96,10GY7/10,17,93961,block1_target_trial
612,0,2409,desire,55,190,26,52,5R4/14,18,96896,block1_target_trial
612,0,4025,lemon,47,54,142,15,10GY5/12,19,101448,block1_target_trial
612,0,2717,belt,66,137,34,17,10R3/10,20,104694,block1_target_trial
612,0,4166,relief,6,216,232,240,10B9/2,21,109382,block1_target_trial
612,0,3842,shampoo,10,233,232,231,N9,22,113749,block1_target_trial
612,0,3265,fork,32,181,182,181,N7,23,117538,block1_target_trial
612,0,3558,temptation,77,99,14,38,5R2/8,24,121618,block1_target_trial
612,0,4243,success,13,252,190,0,5Y8/14,25,126382,block1_target_trial
612,0,2850,romance,55,190,26,52,5R4/14,26,129752,block1_target_trial
612,0,4243,excitement,81,0,58,32,5G2/6,27,134514,block1_target_trial
612,0,3214,mansion,84,0,58,101,5PB2/8,28,138253,block1_target_trial
612,0,6547,ache,87,59,58,58,N2,29,145341,block1_target_trial
612,0,2114,gloom,79,56,49,32,5Y2/2,30,147996,block1_target_trial
612,0,3693,divinity,9,242,226,227,10RP9/2,31,152222,block1_target_trial
612,0,4739,optimism,13,252,190,0,5Y8/14,32,157514,block1_target_trial
612,0,2377,boat,62,0,113,178,5PB4/12,33,160437,block1_target_trial
612,0,2078,sadness,80,46,52,38,5GY2/2,34,163054,block1_target_trial
612,0,1515,rock,79,56,49,32,5Y2/2,35,165105,block1_target_trial
612,0,3480,appearance,45,170,103,0,10YR5/10,36,169129,block1_target_trial
612,0,4880,rose,33,239,107,106,5R6/12,37,174548,block1_target_trial
612,0,2666,pheasant,11,254,185,179,5R8/6,38,177759,block1_target_trial
612,0,3174,urge,26,64,196,164,10G7/8,39,181494,block1_target_trial
612,0,2476,toe,35,187,139,0,5Y6/10,40,184509,block1_target_trial
612,0,4110,heroism,77,99,14,38,5R2/8,41,189159,block1_target_trial
612,0,5350,bone,34,231,111,0,5YR6/14,43,197727,block1_target_trial
612,0,3039,robin,45,170,103,0,10YR5/10,44,201311,block1_target_trial
612,0,4775,barley,2,238,234,140,10Y9/6,45,206635,block1_target_trial
612,0,2593,fish,18,173,204,247,5PB8/6,46,209769,block1_target_trial
612,0,3253,energy,75,139,23,66,10RP3/10,47,213552,block1_target_trial
612,0,2595,chalk,9,242,226,227,10RP9/2,48,216683,block1_target_trial
612,0,3602,playfulness,13,252,190,0,5Y8/14,49,220811,block1_target_trial
612,0,4508,corpse,80,46,52,38,5GY2/2,50,225848,block1_target_trial
612,0,2724,pain,86,91,20,66,5RP2/8,51,229103,block1_target_trial
612,0,3370,loyal,47,54,142,15,10GY5/12,52,232996,block1_target_trial
612,0,3184,heaven,50,0,146,196,10B5/12,53,236701,block1_target_trial
612,0,1643,staple,26,64,196,164,10G7/8,54,238864,block1_target_trial
612,0,1723,sun,13,252,190,0,5Y8/14,55,241113,block1_target_trial
612,0,2178,computer,29,173,169,229,10PB7/8,56,243812,block1_target_trial
612,0,2701,gloom,80,46,52,38,5GY2/2,58,250947,block2_target_trial
612,0,2960,excitement,55,190,26,52,5R4/14,60,260989,block2_target_trial
612,0,5230,computer,43,163,162,162,N6,62,270659,block2_target_trial
612,0,2444,corpse,80,46,52,38,5GY2/2,64,278037,block2_target_trial
612,0,4004,robin,35,187,139,0,5Y6/10,66,286171,block2_target_trial
612,0,3201,optimism,39,0,174,198,5B6/10,68,295841,block2_target_trial
612,0,2729,staple,16,151,214,204,5BG8/4,70,303193,block2_target_trial
612,0,2674,barley,2,238,234,140,10Y9/6,72,309970,block2_target_trial
612,0,2373,urge,77,99,14,38,5R2/8,74,316348,block2_target_trial
612,0,2231,energy,86,91,20,66,5RP2/8,76,322304,block2_target_trial
612,0,2992,appearance,25,103,196,96,10GY7/10,78,329279,block2_target_trial
612,0,4348,pain,55,190,26,52,5R4/14,80,336917,block2_target_trial
612,0,2658,temptation,55,190,26,52,5R4/14,82,343081,block2_target_trial
612,0,3759,mansion,28,99,185,228,10B7/8,84,350012,block2_target_trial
612,0,3976,belt,44,216,65,0,10R5/16,86,357670,block2_target_trial
612,0,3596,fork,32,181,182,181,N7,89,367404,block2_target_trial
612,0,3793,chalk,9,242,226,227,10RP9/2,91,375571,block2_target_trial
612,0,2781,heaven,50,0,146,196,10B5/12,93,381740,block2_target_trial
612,0,3148,toe,23,244,150,0,10YR7/14,95,388505,block2_target_trial
612,0,2984,relief,5,205,236,235,10BG9/2,97,394894,block2_target_trial
612,0,2261,rose,33,239,107,106,5R6/12,99,400233,block2_target_trial
612,0,1723,faith,7,229,228,239,10PB9/2,101,406195,block2_target_trial
612,0,1548,shampoo,7,229,228,239,10PB9/2,103,410215,block2_target_trial
612,0,2248,boat,72,0,79,142,10B3/10,105,415202,block2_target_trial
612,0,1893,pheasant,3,200,241,191,10GY9/4,107,420907,block2_target_trial
612,0,1955,loyal,9,242,226,227,10RP9/2,109,426656,block2_target_trial
612,0,2119,lemon,47,54,142,15,10GY5/12,111,432357,block2_target_trial
612,0,2503,rock,43,163,162,162,N6,113,438123,block2_target_trial
612,0,2483,romance,55,190,26,52,5R4/14,115,446299,block2_target_trial
612,0,1953,sadness,79,56,49,32,5Y2/2,117,451224,block2_target_trial
612,0,2441,sun,13,252,190,0,5Y8/14,119,456421,block2_target_trial
612,0,1589,fish,19,211,197,223,5P8/4,121,460962,block2_target_trial
612,0,1943,divinity,6,216,232,240,10B9/2,123,465789,block2_target_trial
612,0,1780,success,4,203,237,224,10G9/2,125,471583,block2_target_trial
612,0,2063,bone,21,202,202,202,N8,127,477638,block2_target_trial
516,0,7001.539999968372,fish,37,29,171,113,5G6/10,17,1971065,block1_target_trial
612,0,1752,tarantula,7,229,228,239,10PB9/2,129,482752,block2_target_trial
516,0,2810.445000068285,gloom,43,163,162,162,N6,18,1974381,block1_target_trial
612,0,2423,heroism,55,190,26,52,5R4/14,131,488112,block2_target_trial
516,0,6928.575000027195,rose,55,190,26,52,5R4/14,19,1981815,block1_target_trial
612,0,2171,ache,55,190,26,52,5R4/14,133,493055,block2_target_trial
516,0,2999.3700000923127,staple,10,233,232,231,N9,20,1985319,block1_target_trial
612,0,1918,desire,55,190,26,52,5R4/14,135,497915,block2_target_trial
516,0,4067.604999989271,barley,56,146,80,27,5YR4/8,21,1989894,block1_target_trial
612,0,1848,playfulness,3,200,241,191,10GY9/4,137,502282,block2_target_trial
516,0,8398.109999950975,relief,23,244,150,0,10YR7/14,22,1998799,block1_target_trial
516,0,2628.3350000157952,computer,87,59,58,58,N2,23,2001933,block1_target_trial
516,0,5325.184999965131,heroism,1,255,225,176,10YR9/4,24,2007763,block1_target_trial
516,0,2674.4400000898167,boat,50,0,146,196,10B5/12,25,2010943,block1_target_trial
516,0,9125.63499994576,playfulness,52,181,89,164,10P5/12,26,2020575,block1_target_trial
516,0,2517.015000106767,heaven,39,0,174,198,5B6/10,27,2023599,block1_target_trial
516,0,6241.05499999132,romance,42,226,110,159,5RP6/12,28,2030345,block1_target_trial
516,0,4578.645000001416,bone,10,233,232,231,N9,29,2035429,block1_target_trial
516,0,3827.7600000146776,robin,40,96,151,219,5PB6/10,30,2039763,block1_target_trial
516,0,3177.075000014156,success,66,137,34,17,10R3/10,31,2043447,block1_target_trial
516,0,3356.4250000054017,belt,87,59,58,58,N2,32,2047311,block1_target_trial
516,0,5640.664999955334,shampoo,10,233,232,231,N9,33,2053457,block1_target_trial
516,0,2347.7799999527633,fork,32,181,182,181,N7,34,2056309,block1_target_trial
516,0,3107.1699999738485,excitement,41,170,136,191,5P6/8,35,2059921,block1_target_trial
516,0,3176.1999999871477,urge,30,218,156,201,10P7/8,36,2063602,block1_target_trial
516,0,8710.665000020526,energy,44,216,65,0,10R5/16,37,2072817,block1_target_trial
516,0,4444.479999947362,sadness,28,99,185,228,10B7/8,38,2077767,block1_target_trial
516,0,3734.4149999553338,pheasant,50,0,146,196,10B5/12,39,2082007,block1_target_trial
516,0,9225.42000003159,loyal,7,229,228,239,10PB9/2,40,2091737,block1_target_trial
221,0,5738.3049999998475,optimism,37,29,171,113,5G6/10,16,60657,block1_target_trial
516,0,4754.650000017136,toe,1,255,225,176,10YR9/4,41,2097000,block1_target_trial
221,0,5005.964999999836,computer,18,173,204,247,5PB8/6,17,66177,block1_target_trial
516,0,3638.384999940172,tarantula,67,100,65,8,10YR3/6,42,2101144,block1_target_trial
221,0,5024.135000000111,loyal,6,216,232,240,10B9/2,18,71712,block1_target_trial
221,0,6345.365000000122,mansion,2,238,234,140,10Y9/6,19,78568,block1_target_trial
221,0,2059.8899999999994,robin,8,237,227,233,10P9/2,21,83680,block1_target_trial
516,0,16828.06500000879,divinity,9,242,226,227,10RP9/2,43,2118477,block1_target_trial
221,0,1567.254999999932,toe,6,216,232,240,10B9/2,22,85761,block1_target_trial
221,0,1684.060000000041,staple,19,211,197,223,5P8/4,23,87952,block1_target_trial
516,0,3115.32499990426,sun,23,244,150,0,10YR7/14,44,2122099,block1_target_trial
221,0,2508.975000000195,heroism,10,233,232,231,N9,24,90976,block1_target_trial
516,0,4863.039999967441,optimism,51,124,112,186,10PB5/10,45,2127467,block1_target_trial
221,0,2550.3549999998504,rose,42,226,110,159,5RP6/12,25,94040,block1_target_trial
516,0,2822.9050000663847,chalk,0,245,225,219,10R9/2,46,2130795,block1_target_trial
516,0,3963.639999972656,ache,87,59,58,58,N2,47,2135265,block1_target_trial
221,0,8060.579999999842,rock,45,170,103,0,10YR5/10,26,102615,block1_target_trial
516,0,5781.194999930449,faith,33,239,107,106,5R6/12,48,2141551,block1_target_trial
221,0,5089.179999999949,sadness,80,46,52,38,5GY2/2,27,108215,block1_target_trial
516,0,2883.1650000065565,pain,76,82,82,81,N3,49,2144939,block1_target_trial
221,0,3273.144999999655,temptation,40,96,151,219,5PB6/10,28,111999,block1_target_trial
221,0,2177.6849999996484,tarantula,30,218,156,201,10P7/8,29,114687,block1_target_trial
516,0,4732.880000025034,mansion,9,242,226,227,10RP9/2,50,2150179,block1_target_trial
516,0,2871.7299998970702,appearance,0,245,225,219,10R9/2,51,2153557,block1_target_trial
221,0,4523.059999999983,chalk,0,245,225,219,10R9/2,30,119719,block1_target_trial
221,0,2178.154999999606,fork,29,173,169,229,10PB7/8,31,122407,block1_target_trial
516,0,4158.2600000547245,rock,87,59,58,58,N2,52,2158223,block1_target_trial
221,0,1594.0400000004156,appearance,20,246,186,205,5RP8/6,32,124511,block1_target_trial
516,0,2233.0249999649823,desire,41,170,136,191,5P6/8,53,2160961,block1_target_trial
221,0,1890.2349999998405,gloom,7,229,228,239,10PB9/2,33,126911,block1_target_trial
221,0,3224.4000000000524,shampoo,40,96,151,219,5PB6/10,34,130645,block1_target_trial
221,0,1992.365000000049,boat,8,237,227,233,10P9/2,35,133161,block1_target_trial
516,0,6800.709999981336,temptation,55,190,26,52,5R4/14,54,2168267,block1_target_trial
221,0,2349.729999999923,ache,5,205,236,235,10BG9/2,36,136023,block1_target_trial
486,0,6431.454999999914,urge,55,190,26,52,5R4/14,16,111801,block1_target_trial
516,0,2372.315000044182,corpse,87,59,58,58,N2,55,2171145,block1_target_trial
221,0,1485.2000000000698,urge,9,242,226,227,10RP9/2,37,138015,block1_target_trial
516,0,3317.4299999373034,lemon,2,238,234,140,10Y9/6,56,2174969,block1_target_trial
221,0,2882.110000000015,belt,56,146,80,27,5YR4/8,38,141406,block1_target_trial
486,0,5938.444999999774,gloom,69,32,83,38,10GY3/6,17,118253,block1_target_trial
221,0,1728.454999999929,pheasant,7,229,228,239,10PB9/2,39,143647,block1_target_trial
221,0,1281.7499999996508,heaven,17,158,211,223,5B8/4,40,145445,block1_target_trial
221,0,2204.435000000085,sun,12,255,186,123,5YR8/8,41,148160,block1_target_trial
516,0,3288.249999983236,computer,76,82,82,81,N3,58,2183722,block2_target_trial
486,0,7787.144999998418,romance,11,254,185,179,5R8/6,18,126556,block1_target_trial
221,0,5560.040000000299,fish,66,137,34,17,10R3/10,42,154230,block1_target_trial
486,0,2997.3900000004505,appearance,40,96,151,219,5PB6/10,19,130068,block1_target_trial
221,0,2312.975000000268,divinity,25,103,196,96,10GY7/10,43,157055,block1_target_trial
221,0,2084.1799999998184,barley,9,242,226,227,10RP9/2,44,159646,block1_target_trial
486,0,6559.1750000003085,ache,65,107,108,107,N4,20,137143,block1_target_trial
516,0,7989.159999997355,mansion,65,107,108,107,N4,60,2197239,block2_target_trial
158,0,7861.050000006799,belt,45,170,103,0,10YR5/10,16,123187,block1_target_trial
221,0,5399.870000000199,pain,55,190,26,52,5R4/14,45,165566,block1_target_trial
221,0,2287.430000000313,lemon,13,252,190,0,5Y8/14,46,168366,block1_target_trial
486,0,7392.565000000119,divinity,2,238,234,140,10Y9/6,21,145051,block1_target_trial
221,0,1625.545000000333,playfulness,29,173,169,229,10PB7/8,47,170501,block1_target_trial
158,0,6457.7749999880325,fork,21,202,202,202,N8,17,130153,block1_target_trial
516,0,3756.620000000112,desire,55,190,26,52,5R4/14,62,2205016,block2_target_trial
221,0,3482.514999999694,bone,9,242,226,227,10RP9/2,48,174493,block1_target_trial
158,0,4506.62500000908,ache,59,0,117,66,5G4/10,18,135167,block1_target_trial
221,0,1921.929999999993,desire,18,173,204,247,5PB8/6,49,176927,block1_target_trial
516,0,2187.5799999106675,robin,40,96,151,219,5PB6/10,64,2211611,block2_target_trial
486,0,9189.829999999318,optimism,40,96,151,219,5PB6/10,22,154757,block1_target_trial
221,0,2290.300000000105,energy,8,237,227,233,10P9/2,50,179727,block1_target_trial
486,0,2202.1949999998324,sun,2,238,234,140,10Y9/6,23,157474,block1_target_trial
158,0,6534.890000009909,staple,76,82,82,81,N3,19,142207,block1_target_trial
221,0,2568.655000000028,faith,10,233,232,231,N9,51,182807,block1_target_trial
80,0,2947.314999997616,lemon,2,238,234,140,10Y9/6,16,90904,block1_target_trial
516,0,2840.334999957122,excitement,51,124,112,186,10PB5/10,66,2219768,block2_target_trial
221,0,2617.439999999973,romance,20,246,186,205,5RP8/6,52,185935,block1_target_trial
158,0,3819.885000004433,robin,17,158,211,223,5B8/4,20,146532,block1_target_trial
486,0,4685.890000000654,success,47,54,142,15,10GY5/12,24,162673,block1_target_trial
221,0,2329.365000000049,relief,7,229,228,239,10PB9/2,53,188776,block1_target_trial
80,0,4316.769999917597,desire,17,158,211,223,5B8/4,17,95724,block1_target_trial
486,0,2185.1750000005118,tarantula,87,59,58,58,N2,25,165372,block1_target_trial
158,0,3251.925000018673,barley,35,187,139,0,5Y6/10,21,150295,block1_target_trial
223,0,4134.159999899566,staple,7,229,228,239,10PB9/2,16,128585,block1_target_trial
516,0,2531.624999945052,fish,38,0,173,154,5BG6/10,68,2225918,block2_target_trial
221,0,3852.390000000014,corpse,17,158,211,223,5B8/4,54,193143,block1_target_trial
486,0,3099.920000000566,rose,55,190,26,52,5R4/14,26,168985,block1_target_trial
223,0,2703.4200001508,temptation,44,216,65,0,10R5/16,17,131801,block1_target_trial
221,0,4181.305000000051,success,14,184,216,68,5GY8/10,55,197831,block1_target_trial
158,0,6769.934999989346,sadness,72,0,79,142,10B3/10,22,157570,block1_target_trial
80,0,8335.935000097379,excitement,53,218,64,108,10RP5/14,18,104564,block1_target_trial
486,0,4613.294999999198,bone,10,233,232,231,N9,27,174114,block1_target_trial
223,0,3893.004999961704,playfulness,40,96,151,219,5PB6/10,18,136201,block1_target_trial
221,0,2449.560000000027,excitement,6,216,232,240,10B9/2,56,200790,block1_target_trial
516,0,2497.319999965839,lemon,2,238,234,140,10Y9/6,70,2235165,block2_target_trial
80,0,3356.625000014901,sadness,0,245,225,219,10R9/2,19,108424,block1_target_trial
